File: Polymers lab/2/DSC/!^ESERC bicchiere PS  L=71,4.txt
              0              0      0.0220871              0      0.0164032
              3              3        1.01872              1       0.013924
              6              6        1.97239              2     -0.0205754
              9              9        2.87726              3     -0.0916046
             12             12        3.77468              4      -0.168444
             15             15        4.67445              5      -0.243786
             18             18        5.58635              6      -0.310279
             21             21        6.51461              7      -0.364701
             24             24        7.45867              8      -0.407427
             27             27        8.41748              9      -0.439173
             30             30        9.38832             10      -0.461942
             33             33        10.3691             11      -0.477263
             36             36        11.3557             12      -0.488231
             39             39        12.3467             13      -0.495953
             42             42        13.3429             14      -0.499689
             45             45        14.3413             15      -0.501734
             48             48        15.3408             16      -0.503013
             51             51        16.3414             17      -0.503435
             54             54        17.3424             18      -0.503588
             57             57        18.3426             19      -0.504307
             60             60        19.3431             20      -0.504791
             63             63        20.3435             21      -0.505416
             66             66        21.3438             22      -0.506099
             69             69        22.3438             23      -0.507009
             72             72        23.3437             24      -0.507961
             75             75        24.3435             25      -0.509015
             78             78        25.3434             26      -0.510076
             81             81         26.343             27      -0.511304
             84             84        27.3426             28      -0.512506
             87             87        28.3423             29      -0.513733
             90             90        29.3418             30      -0.515039
             93             93        30.3414             31       -0.51633
             96             96        31.3409             32      -0.517689
             99             99        32.3404             33      -0.519006
            102            102        33.3399             34      -0.520366
            105            105        34.3394             35      -0.521741
            108            108        35.3389             36      -0.523136
            111            111        36.3383             37      -0.524619
            114            114        37.3377             38      -0.526095
            117            117        38.3371             39      -0.527585
            120            120        39.3365             40      -0.529012
            123            123         40.336             41       -0.53043
            126            126        41.3356             42      -0.531768
            129            129        42.3353             43      -0.533097
            132            132         43.335             44      -0.534332
            135            135        44.3347             45      -0.535608
            138            138        45.3343             46      -0.536982
            141            141         46.334             47       -0.53829
            144            144        47.3336             48      -0.539617
            147            147        48.3332             49      -0.541023
            150            150        49.3328             50      -0.542447
            153            153        50.3324             51      -0.543806
            156            156        51.3321             52      -0.545163
            159            159        52.3318             53      -0.546535
            162            162        53.3315             54      -0.547844
            165            165        54.3312             55       -0.54916
            168            168        55.3309             56      -0.550536
            171            171        56.3307             57      -0.551821
            174            174        57.3305             58      -0.553124
            177            177        58.3302             59       -0.55452
            180            180        59.3299             60      -0.555888
            183            183        60.3296             61      -0.557254
            186            186        61.3292             62        -0.5587
            189            189        62.3288             63      -0.560253
            192            192        63.3282             64      -0.561901
            195            195        64.3276             65      -0.563551
            198            198        65.3268             66      -0.565405
            201            201         66.326             67      -0.567266
            204            204        67.3251             68      -0.569186
            207            207        68.3242             69      -0.571193
            210            210        69.3232             70      -0.573246
            213            213        70.3221             71      -0.575412
            216            216        71.3207             72      -0.577762
            219            219        72.3192             73      -0.580324
            222            222        73.3173             74      -0.583124
            225            225        74.3155             75      -0.585956
            228            228        75.3137             76      -0.588772
            231            231        76.3107             77      -0.592591
            234            234        77.3069             78      -0.597148
            237            237        78.3029             79      -0.601899
            240            240        79.2988             80      -0.606754
            243            243        80.2935             81      -0.612743
            246            246         81.289             82      -0.618016
            249            249        82.2842             83      -0.623546
            252            252        83.2795             84      -0.628994
            255            255        84.2767             85      -0.632868
            258            258         85.277             86      -0.634007
            261            261        86.2795             87      -0.633174
            264            264        87.2836             88      -0.631022
            267            267        88.2871             89      -0.629327
            270            270        89.2906             90      -0.627645
            273            273        90.2941             91      -0.625965
            276            276        91.2946             92      -0.626999
            279            279        92.2914             93      -0.631271
            282            282        93.2871             94      -0.636518
            285            285        94.2812             95      -0.643301
            288            288        95.2744             96      -0.650813
            291            291        96.2689             97      -0.657319
            294            294        97.2633             98      -0.663809
            297            297        98.2576             99      -0.670541
            300            300        99.2519            100      -0.677228
            303            303        100.245            101      -0.683351
            306            306        101.237            102      -0.690053
            309            309        102.227            103      -0.699136
            312            312        103.217            104      -0.708102
            315            315        104.205            105       -0.71866
            318            318        105.187            106       -0.73444
            321            321        106.177            107      -0.743181
            324            324        107.176            108      -0.744331
            327            327        108.178            109      -0.742263
            330            330        109.183            110       -0.73761
            333            333        110.187            111       -0.73356
            336            336        111.191            112      -0.730439
            339            339        112.194            113      -0.727403
            342            342        113.197            114      -0.724474
            345            345          114.2            115      -0.721601
            348            348        115.203            116      -0.718992
            351            351        116.206            117      -0.716087
            354            354        117.207            118      -0.715441
            357            357        118.208            119        -0.7145
            360            360        119.209            120      -0.713401
            363            363        120.209            121       -0.71319
            366            366        121.209            122      -0.713403
            369            369        122.209            123      -0.713396
            372            372        123.208            124      -0.713568
            375            375        124.208            125      -0.713928
            378            378        125.208            126      -0.714346
            381            381        126.207            127      -0.715063
            384            384        127.206            128      -0.715735
            387            387        128.205            129      -0.716558
            390            390        129.204            130      -0.717319
            393            393        130.203            131      -0.718269
            396            396        131.203            132      -0.719129
            399            399        132.202            133      -0.720112
            402            402        133.201            134      -0.721061
            405            405          134.2            135       -0.72205
            408            408        135.199            136      -0.723009
            411            411        136.198            137      -0.723979
            414            414        137.197            138      -0.724863
            417            417        138.196            139      -0.725723
            420            420        139.195            140      -0.726571
            423            423        140.195            141      -0.727499
            426            426        141.194            142      -0.728335
            429            429        142.193            143      -0.729275
            432            432        143.192            144       -0.73022
            435            435        144.192            145      -0.731055
            438            438        145.191            146      -0.731886
            441            441         146.19            147      -0.732725
            444            444         147.19            148      -0.733552
            447            447        148.189            149      -0.734272
            450            450        149.188            150      -0.735164
            453            453        150.188            151      -0.736092
            456            456        151.187            152      -0.736866
            459            459        152.187            153      -0.737706
            462            462        153.186            154      -0.738452
            465            465        154.186            155      -0.739227
            468            468        155.185            156      -0.740013
            471            471        156.185            157        -0.7409
            474            474        157.184            158      -0.741741
            477            477        158.183            159      -0.742729
            480            480        159.183            160      -0.743741
            483            483        160.182            161      -0.744658
            486            486        161.182            162      -0.745491
            489            489        162.181            163      -0.746265
            492            492        163.181            164         -0.747
            495            495        164.181            165      -0.747704
            498            498         165.18            166      -0.748344
            501            501         166.18            167      -0.749086
            504            504         167.18            168      -0.749929
            507            507        168.179            169      -0.750755
            510            510        169.179            170      -0.751654
            513            513        170.178            171      -0.752641
            516            516        171.178            172       -0.75377
            519            519        172.177            173      -0.754743
            522            522        173.177            174      -0.755744
            525            525        174.176            175      -0.756698
            528            528        175.176            176      -0.757677
            531            531        176.176            177      -0.758437
            534            534        177.175            178      -0.759225
            537            537        178.175            179      -0.759945
            540            540        179.175            180      -0.760696
            543            543        180.175            181      -0.761523
            546            546        181.175            182       -0.76229
            549            549        182.175            183      -0.763076
            552            552        183.175            184      -0.763826
            555            555        184.174            185      -0.764642
            558            558        185.174            186      -0.765348
            561            561        186.174            187      -0.766114
            564            564        187.174            188      -0.766911
            567            567        188.174            189      -0.767724
            570            570        189.174            190      -0.768487
            573            573        190.174            191      -0.769204
            576            576        191.174            192       -0.76994
            579            579        192.174            193      -0.770618
            582            582        193.175            194      -0.771162
            585            585        194.175            195      -0.771789
            588            588        195.175            196      -0.772355
            591            591        196.175            197      -0.773052
            594            594        197.179            198      -0.770704
            597            597        198.229            199      -0.724269
            600            600        199.341            200      -0.619482
            603            603        198.503            199      -0.466765
            606            606        197.688            198      -0.292641
            609            609        196.872            197      -0.119805
            612            612        196.045            196      0.0422529
            615            615        195.194            195       0.181872
            618            618        194.324            194       0.302812
            621            621        193.451            193        0.42092
            624            624        192.578            192       0.539417
            627            627          191.7            191       0.651626
            630            630        190.796            190       0.740903
            633            633         189.86            189        0.79995
            636            636        188.896            188       0.832331
            639            639        187.907            187       0.841571
            642            642        186.903            186       0.837109
            645            645        185.892            185       0.826494
            648            648        184.883            184       0.816789
            651            651        183.873            183       0.806997
            654            654        182.866            182       0.800324
            657            657        181.864            181        0.79736
            660            660        180.864            180       0.796619
            663            663        179.866            179       0.797756
            666            666        178.869            178       0.800066
            669            669        177.872            177       0.802592
            672            672        176.875            176       0.804374
            675            675        175.878            175       0.806616
            678            678        174.881            174        0.80871
            681            681        173.881            173       0.807748
            684            684         172.88            172       0.806283
            687            687        171.878            171       0.804273
            690            690        170.877            170         0.8027
            693            693        169.876            169       0.801445
            696            696        168.875            168        0.80011
            699            699        167.875            167       0.799071
            702            702        166.874            166       0.798233
            705            705        165.874            165       0.797505
            708            708        164.874            164       0.796699
            711            711        163.873            163       0.795926
            714            714        162.873            162       0.794847
            717            717        161.872            161       0.793841
            720            720        160.871            160       0.792464
            723            723        159.869            159       0.790667
            726            726        158.868            158       0.788674
            729            729        157.864            157       0.785281
            732            732        156.862            156       0.782987
            735            735         155.86            155       0.780419
            738            738        154.858            154       0.778423
            741            741        153.857            153       0.777258
            744            744        152.856            152       0.776047
            747            747        151.856            151       0.776063
            750            750        150.856            150       0.775386
            753            753        149.855            149       0.774551
            756            756        148.855            148       0.773868
            759            759        147.854            147       0.773008
            762            762        146.853            146       0.771908
            765            765        145.852            145       0.770808
            768            768        144.851            144       0.769411
            771            771         143.85            143        0.76793
            774            774        142.848            142       0.766423
            777            777        141.847            141       0.764836
            780            780        140.845            140       0.763075
            783            783        139.843            139       0.761038
            786            786        138.841            138       0.758921
            789            789        137.838            137       0.756631
            792            792        136.836            136       0.754026
            795            795        135.833            135       0.751114
            798            798        134.829            134       0.747998
            801            801        133.826            133       0.744745
            804            804        132.822            132       0.741666
            807            807        131.819            131       0.738133
            810            810        130.815            130       0.734754
            813            813        129.813            129       0.733289
            816            816        128.815            128        0.73475
            819            819        127.819            127        0.73807
            822            822        126.821            126        0.74027
            825            825        125.825            125       0.743343
            828            828        124.824            124       0.743073
            831            831        123.823            123       0.742097
            834            834        122.822            122       0.741359
            837            837        121.821            121       0.740343
            840            840         120.82            120       0.739251
            843            843        119.819            119       0.738243
            846            846        118.817            118       0.737072
            849            849        117.816            117       0.735896
            852            852        116.815            116       0.734916
            855            855        115.814            115       0.734113
            858            858        114.813            114       0.733468
            861            861        113.812            113       0.732853
            864            864        112.812            112       0.732453
            867            867        111.811            111       0.731871
            870            870         110.81            110       0.731024
            873            873        109.809            109       0.730761
            876            876        108.809            108       0.730333
            879            879        107.806            107        0.72804
            882            882        106.802            106       0.724921
            885            885        105.799            105       0.722454
            888            888        104.797            104       0.720494
            891            891        103.794            103       0.718203
            894            894        102.792            102       0.716839
            897            897        101.791            101       0.715634
            900            900        100.789            100       0.714203
            903            903        99.7893             99       0.712907
            906            906        98.7895             98       0.711411
            909            909        97.7895             97       0.709743
            912            912        96.7894             96       0.708039
            915            915         95.789             95       0.706116
            918            918        94.7886             94       0.704106
            921            921        93.7882             93       0.702145
            924            924        92.7874             92       0.699808
            927            927        91.7865             91       0.697476
            930            930         90.786             90       0.695408
            933            933        89.7852             89       0.693185
            936            936        88.7822             88       0.688929
            939            939        87.7774             87       0.683186
            942            942        86.7714             86       0.676442
            945            945        85.7667             85       0.670793
            948            948        84.7614             84       0.664704
            951            951         83.757             83       0.659386
            954            954         82.754             82       0.655322
            957            957        81.7517             81       0.651951
            960            960        80.7488             80       0.648015
            963            963        79.7455             79       0.643722
            966            966        78.7423             78         0.6396
            969            969        77.7389             77       0.635251
            972            972        76.7354             76       0.630902
            975            975        75.7318             75        0.62643
            978            978        74.7281             74       0.621931
            981            981        73.7245             73        0.61754
            984            984        72.7211             72       0.613345
            987            987        71.7176             71       0.609105
            990            990        70.7145             70        0.60515
            993            993        69.7114             69        0.60124
            996            996          68.71             68       0.598788
            999            999        67.7087             67       0.596461
           1002           1002        66.7081             66       0.594746
           1005           1005        65.7085             65       0.593856
           1008           1008        64.7077             64       0.591899
           1011           1011        63.7068             63       0.589898
           1014           1014        62.7054             62       0.587576
           1017           1017        61.7043             61       0.585434
           1020           1020         60.703             60       0.583189
           1023           1023        59.7019             59        0.58104
           1026           1026        58.7006             58       0.578841
           1029           1029        57.6997             57        0.57685
           1032           1032        56.6988             56       0.575016
           1035           1035        55.6982             55       0.573339
           1038           1038        54.6979             54        0.57197
           1041           1041        53.6977             53       0.570615
           1044           1044        52.6972             52       0.569117
           1047           1047        51.6969             51       0.567689
           1050           1050        50.6963             50       0.566117
           1053           1053        49.6953             49       0.564173
           1056           1056        48.6942             48       0.562164
           1059           1059        47.6928             47       0.559905
           1062           1062        46.6913             46       0.557643
           1065           1065        45.6898             45       0.555323
           1068           1068        44.6884             44       0.553164
           1071           1071        43.6874             43       0.551282
           1074           1074        42.6864             42       0.549383
           1077           1077        41.6855             41       0.547629
           1080           1080        40.6842             40       0.545571
           1083           1083         39.686             39       0.545976
           1086           1086        38.6867             38       0.545477
           1089           1089        37.6871             37        0.54476
           1092           1092        36.6876             36        0.54411
           1095           1095        35.6881             35       0.543495
           1098           1098        34.6881             34       0.542471
           1101           1101        33.6882             33       0.541556
           1104           1104        32.6886             32       0.540836
           1107           1107        31.6871             31       0.538659
           1110           1110        30.6862             30       0.536992
           1113           1113        29.6849             29       0.534966
           1116           1116        28.6837             28       0.533084
           1119           1119        27.6824             27       0.531042
           1122           1122        26.6811             26       0.529095
           1125           1125        25.6799             25       0.527209
           1128           1128        24.6789             24       0.525443
           1131           1131        23.6779             23       0.523736
           1134           1134        22.6772             22       0.522252
           1137           1137        21.6766             21       0.520903
           1140           1140        20.6761             20        0.51959
           1143           1143        19.6755             19       0.518187
           1146           1146        18.6749             18       0.516848
           1149           1149        17.6742             17       0.515336
           1152           1152         16.673             16       0.513562
           1155           1155        15.6719             15       0.511836
           1158           1158        14.6707             14       0.510012
           1161           1161        13.6695             13       0.508251
           1164           1164        12.6688             12       0.506809
           1167           1167        11.6677             11       0.505106
           1170           1170        10.6676             10       0.504154
           1173           1173        9.66838              9         0.5039
           1176           1176        8.66852              8       0.503152
           1179           1179        7.66814              7       0.502013
           1182           1182        6.66855              6       0.501476
           1185           1185        5.66825              5       0.500414
           1188           1188        4.66733              4       0.498891
           1191           1191        3.66502              3       0.496337
           1194           1194         2.6566              2       0.489237
           1197           1197        1.61511              1       0.457567
           1200           1200       0.528179              0       0.392257
           1203           1203        1.41068              1       0.305498
           1206           1206        2.27524              2       0.205084
           1209           1209        3.14132              3       0.105471
           1212           1212        4.00889              4     0.00664664
           1215           1215        4.88411              5     -0.0867864
           1218           1218        5.78285              6      -0.162886
           1221           1221         6.6949              7       -0.22924
           1224           1224        7.61976              8      -0.286184
           1227           1227        8.56023              9      -0.331552
           1230           1230        9.51205             10      -0.368499
           1233           1233         10.474             11      -0.397922
           1236           1236        11.4444             12      -0.420995
           1239           1239        12.4213             13      -0.439266
           1242           1242        13.4026             14      -0.454287
           1245           1245        14.3899             15      -0.464744
           1248           1248        15.3799             16       -0.47321
           1251           1251        16.3721             17       -0.48001
           1254           1254        17.3659             18      -0.485562
           1257           1257        18.3617             19      -0.489647
           1260           1260        19.3593             20      -0.492381
           1263           1263        20.3567             21      -0.495276
           1266           1266        21.3541             22      -0.498118
           1269           1269        22.3528             23      -0.500039
           1272           1272        23.3513             24      -0.502077
           1275           1275        24.3498             25      -0.504136
           1278           1278        25.3488             26      -0.505836
           1281           1281         26.348             27      -0.507414
           1284           1284        27.3473             28      -0.508916
           1287           1287        28.3466             29      -0.510359
           1290           1290        29.3461             30      -0.511689
           1293           1293        30.3456             31      -0.513017
           1296           1296        31.3451             32      -0.514339
           1299           1299        32.3448             33      -0.515557
           1302           1302        33.3444             34      -0.516829
           1305           1305        34.3441             35      -0.518029
           1308           1308         35.344             36       -0.51912
           1311           1311        36.3437             37      -0.520339
           1314           1314        37.3435             38      -0.521464
           1317           1317        38.3433             39        -0.5226
           1320           1320        39.3431             40      -0.523767
           1323           1323        40.3429             41      -0.524952
           1326           1326        41.3427             42      -0.526144
           1329           1329        42.3424             43      -0.527331
           1332           1332        43.3423             44      -0.528508
           1335           1335         44.342             45       -0.52974
           1338           1338        45.3418             46      -0.530944
           1341           1341        46.3416             47      -0.532171
           1344           1344        47.3413             48      -0.533456
           1347           1347         48.341             49      -0.534697
           1350           1350        49.3407             50      -0.535983
           1353           1353        50.3403             51      -0.537369
           1356           1356        51.3399             52      -0.538808
           1359           1359        52.3395             53      -0.540215
           1362           1362        53.3391             54      -0.541645
           1365           1365        54.3386             55      -0.543133
           1368           1368        55.3381             56      -0.544595
           1371           1371        56.3377             57      -0.546035
           1374           1374        57.3374             58      -0.547446
           1377           1377        58.3369             59      -0.548918
           1380           1380        59.3365             60      -0.550361
           1383           1383        60.3362             61       -0.55175
           1386           1386        61.3358             62      -0.553258
           1389           1389        62.3354             63      -0.554681
           1392           1392         63.335             64      -0.556233
           1395           1395        64.3345             65      -0.557747
           1398           1398        65.3341             66      -0.559278
           1401           1401        66.3336             67      -0.560846
           1404           1404        67.3332             68      -0.562363
           1407           1407        68.3329             69      -0.563855
           1410           1410        69.3324             70      -0.565423
           1413           1413         70.332             71      -0.566993
           1416           1416        71.3314             72      -0.568658
           1419           1419        72.3309             73      -0.570315
           1422           1422        73.3303             74      -0.572073
           1425           1425        74.3297             75      -0.573838
           1428           1428        75.3291             76       -0.57555
           1431           1431        76.3285             77      -0.577305
           1434           1434        77.3278             78      -0.579172
           1437           1437        78.3269             79      -0.581207
           1440           1440        79.3259             80      -0.583369
           1443           1443        80.3247             81      -0.585657
           1446           1446        81.3232             82      -0.588272
           1449           1449        82.3213             83       -0.59122
           1452           1452        83.3194             84      -0.594182
           1455           1455        84.3178             85      -0.596912
           1458           1458        85.3154             86      -0.600303
           1461           1461        86.3118             87      -0.604851
           1464           1464        87.3078             88      -0.609661
           1467           1467        88.3033             89      -0.615002
           1470           1470         89.298             90      -0.621109
           1473           1473        90.2924             91       -0.62747
           1476           1476        91.2845             92      -0.635905
           1479           1479        92.2765             93      -0.644555
           1482           1482        93.2679             94      -0.653673
           1485           1485        94.2601             95       -0.66214
           1488           1488         95.252             96      -0.670928
           1491           1491        96.2441             97      -0.679547
           1494           1494         97.239             98      -0.685747
           1497           1497        98.2361             99      -0.689931
           1500           1500        99.2337            100      -0.693771
           1503           1503        100.231            101      -0.695817
           1506           1506         101.23            102      -0.696473
           1509           1509        102.229            103      -0.697268
           1512           1512        103.229            104      -0.697496
           1515           1515        104.228            105      -0.697894
           1518           1518        105.227            106      -0.698288
           1521           1521        106.227            107      -0.698652
           1524           1524        107.226            108      -0.699205
           1527           1527        108.225            109      -0.699669
           1530           1530        109.224            110      -0.700138
           1533           1533        110.224            111      -0.700673
           1536           1536        111.223            112      -0.701296
           1539           1539        112.222            113      -0.701831
           1542           1542        113.221            114      -0.702485
           1545           1545         114.22            115      -0.703133
           1548           1548         115.22            116      -0.703892
           1551           1551        116.219            117      -0.704669
           1554           1554        117.218            118      -0.705455
           1557           1557        118.217            119      -0.706269
           1560           1560        119.216            120      -0.707117
           1563           1563        120.215            121       -0.70795
           1566           1566        121.214            122      -0.708803
           1569           1569        122.213            123      -0.709649
           1572           1572        123.212            124      -0.710462
           1575           1575        124.211            125      -0.711388
           1578           1578         125.21            126      -0.712177
           1581           1581        126.209            127      -0.713054
           1584           1584        127.208            128      -0.713886
           1587           1587        128.207            129      -0.714833
           1590           1590        129.206            130      -0.715779
           1593           1593        130.205            131      -0.716761
           1596           1596        131.204            132      -0.717759
           1599           1599        132.203            133      -0.718654
           1602           1602        133.202            134      -0.719695
           1605           1605        134.201            135      -0.720665
           1608           1608          135.2            136      -0.721567
           1611           1611          136.2            137      -0.722405
           1614           1614        137.199            138      -0.723369
           1617           1617        138.198            139      -0.724226
           1620           1620        139.197            140      -0.724997
           1623           1623        140.197            141      -0.725772
           1626           1626        141.196            142       -0.72665
           1629           1629        142.195            143      -0.727556
           1632           1632        143.194            144       -0.72847
           1635           1635        144.193            145      -0.729465
           1638           1638        145.193            146      -0.730408
           1641           1641        146.192            147      -0.731465
           1644           1644        147.191            148       -0.73246
           1647           1647         148.19            149      -0.733327
           1650           1650        149.189            150      -0.734175
           1653           1653        150.189            151      -0.735136
           1656           1656        151.188            152      -0.736022
           1659           1659        152.187            153      -0.736879
           1662           1662        153.187            154      -0.737708
           1665           1665        154.186            155      -0.738685
           1668           1668        155.185            156      -0.739676
           1671           1671        156.185            157      -0.740573
           1674           1674        157.184            158      -0.741397
           1677           1677        158.184            159      -0.742233
           1680           1680        159.183            160       -0.74304
           1683           1683        160.183            161      -0.743891
           1686           1686        161.183            162      -0.744532
           1689           1689        162.182            163      -0.745334
           1692           1692        163.182            164      -0.746175
           1695           1695        164.181            165      -0.746962
           1698           1698        165.181            166      -0.747742
           1701           1701        166.181            167       -0.74847
           1704           1704         167.18            168      -0.749336
           1707           1707         168.18            169      -0.750235
           1710           1710        169.179            170      -0.751103
           1713           1713        170.179            171      -0.752015
           1716           1716        171.179            172      -0.752946
           1719           1719        172.178            173      -0.753792
           1722           1722        173.178            174      -0.754677
           1725           1725        174.177            175      -0.755622
           1728           1728        175.177            176      -0.756647
           1731           1731        176.177            177      -0.757597
           1734           1734        177.176            178      -0.758605
           1737           1737        178.176            179      -0.759538
           1740           1740        179.175            180      -0.760418
           1743           1743        180.175            181      -0.761164
           1746           1746        181.175            182      -0.761897
           1749           1749        182.175            183      -0.762651
           1752           1752        183.175            184      -0.763387
           1755           1755        184.175            185      -0.764261
           1758           1758        185.175            186      -0.765032
           1761           1761        186.175            187      -0.765837
           1764           1764        187.175            188      -0.766638
           1767           1767        188.174            189      -0.767508
           1770           1770        189.174            190      -0.768269
           1773           1773        190.174            191      -0.769003
           1776           1776        191.174            192      -0.769868
           1779           1779        192.174            193       -0.77075
           1782           1782        193.174            194      -0.771578
           1785           1785        194.174            195      -0.772354
           1788           1788        195.174            196      -0.773072
           1791           1791        196.175            197      -0.773729
           1794           1794        197.175            198      -0.774278
           1797           1797        198.175            199       -0.77475
           1799           1799        198.842        199.667      -0.775054

________________________________________________________________________________
Not signed                                                        STARe SW 12.00