File: Polymers lab/2/DSC/!^ESERC bicchiere PP  L=66,5.txt
              0              0      0.0276192              0      0.0249403
              3              3        1.02666              1      0.0241136
              6              6        2.00422              2     0.00381895
              9              9         2.9273              3     -0.0659781
             12             12        3.83279              4      -0.151993
             15             15         4.7399              5      -0.236826
             18             18        5.66109              6      -0.309106
             21             21         6.5965              7      -0.368631
             24             24        7.54649              8      -0.415024
             27             27        8.50834              9      -0.450705
             30             30        9.48067             10      -0.476875
             33             33         10.462             11      -0.494827
             36             36        11.4484             12      -0.508278
             39             39        12.4404             13      -0.516533
             42             42        13.4354             14      -0.522041
             45             45        14.4322             15      -0.525871
             48             48        15.4314             16      -0.527546
             51             51        16.4312             17      -0.528653
             54             54        17.4312             18      -0.529633
             57             57        18.4311             19      -0.530609
             60             60        19.4309             20      -0.531743
             63             63        20.4309             21      -0.532761
             66             66        21.4308             22      -0.533785
             69             69        22.4305             23      -0.535051
             72             72          23.43             24      -0.536399
             75             75        24.4295             25      -0.537898
             78             78        25.4288             26      -0.539524
             81             81         26.428             27      -0.541291
             84             84        27.4272             28      -0.543042
             87             87        28.4264             29       -0.54477
             90             90        29.4255             30      -0.546627
             93             93        30.4246             31       -0.54851
             96             96        31.4237             32      -0.550396
             99             99        32.4227             33      -0.552319
            102            102        33.4216             34      -0.554402
            105            105        34.4205             35      -0.556512
            108            108        35.4195             36      -0.558579
            111            111        36.4183             37      -0.560739
            114            114        37.4171             38      -0.562953
            117            117        38.4159             39      -0.565182
            120            120        39.4147             40      -0.567436
            123            123        40.4134             41      -0.569821
            126            126         41.412             42      -0.572215
            129            129        42.4106             43       -0.57471
            132            132        43.4092             44      -0.577241
            135            135        44.4076             45       -0.57985
            138            138         45.406             46      -0.582599
            141            141        46.4043             47      -0.585429
            144            144        47.4025             48      -0.588327
            147            147        48.4006             49      -0.591375
            150            150        49.3986             50       -0.59455
            153            153        50.3965             51      -0.597721
            156            156        51.3943             52      -0.601141
            159            159         52.392             53      -0.604586
            162            162        53.3898             54      -0.608074
            165            165        54.3873             55      -0.611713
            168            168         55.385             56      -0.615246
            171            171        56.3828             57      -0.618766
            174            174        57.3805             58      -0.622311
            177            177        58.3783             59      -0.625771
            180            180        59.3761             60       -0.62924
            183            183        60.3742             61      -0.632536
            186            186        61.3722             62      -0.635793
            189            189        62.3705             63      -0.638911
            192            192        63.3689             64      -0.641821
            195            195        64.3675             65      -0.644551
            198            198        65.3663             66      -0.647155
            201            201        66.3651             67      -0.649689
            204            204        67.3643             68       -0.65191
            207            207        68.3635             69      -0.654056
            210            210         69.363             70      -0.656022
            213            213        70.3626             71      -0.657849
            216            216        71.3623             72      -0.659491
            219            219        72.3621             73      -0.661101
            222            222         73.362             74      -0.662643
            225            225        74.3619             75      -0.664156
            228            228        75.3619             76      -0.665629
            231            231        76.3618             77      -0.667159
            234            234        77.3618             78      -0.668629
            237            237        78.3617             79      -0.670104
            240            240        79.3617             80      -0.671652
            243            243        80.3617             81      -0.673102
            246            246        81.3617             82      -0.674598
            249            249        82.3618             83         -0.676
            252            252        83.3618             84      -0.677438
            255            255        84.3618             85      -0.678955
            258            258        85.3618             86      -0.680458
            261            261        86.3617             87      -0.682116
            264            264        87.3614             88      -0.683978
            267            267        88.3611             89      -0.685819
            270            270        89.3606             90      -0.687833
            273            273        90.3602             91      -0.689839
            276            276        91.3597             92      -0.691944
            279            279        92.3592             93      -0.694106
            282            282        93.3586             94      -0.696327
            285            285         94.358             95      -0.698604
            288            288        95.3573             96      -0.700928
            291            291        96.3567             97      -0.703242
            294            294        97.3558             98      -0.705801
            297            297         98.355             99      -0.708315
            300            300        99.3542            100      -0.710905
            303            303        100.351            101       -0.71366
            306            306        101.349            102      -0.716553
            309            309        102.346            103      -0.719449
            312            312        103.343            104      -0.722404
            315            315         104.34            105      -0.725448
            318            318        105.337            106      -0.728643
            321            321        106.334            107      -0.731959
            324            324         107.33            108      -0.735501
            327            327        108.327            109      -0.739194
            330            330        109.323            110      -0.742899
            333            333        110.319            111      -0.746846
            336            336        111.316            112      -0.750587
            339            339        112.312            113      -0.754319
            342            342        113.309            114      -0.757926
            345            345        114.306            115      -0.761303
            348            348        115.303            116      -0.764418
            351            351          116.3            117      -0.767518
            354            354        117.297            118      -0.770629
            357            357        118.294            119      -0.773552
            360            360        119.292            120      -0.776562
            363            363        120.289            121      -0.779755
            366            366        121.286            122      -0.783161
            369            369        122.282            123      -0.786717
            372            372        123.279            124      -0.790404
            375            375        124.275            125      -0.794383
            378            378        125.271            126      -0.798796
            381            381        126.267            127      -0.803154
            384            384        127.263            128      -0.807501
            387            387        128.259            129      -0.812852
            390            390        129.253            130      -0.819457
            393            393        130.247            131      -0.825987
            396            396        131.241            132      -0.832509
            399            399        132.235            133      -0.839391
            402            402        133.228            134      -0.846722
            405            405        134.221            135      -0.854288
            408            408        135.214            136       -0.86188
            411            411        136.207            137       -0.87001
            414            414        137.199            138        -0.8787
            417            417        138.192            139      -0.887424
            420            420        139.184            140      -0.896292
            423            423        140.175            141      -0.905802
            426            426        141.167            142      -0.914974
            429            429        142.159            143      -0.924178
            432            432         143.15            144      -0.934637
            435            435        144.139            145      -0.946561
            438            438        145.128            146      -0.958721
            441            441        146.116            147      -0.972571
            444            444        147.104            148      -0.986571
            447            447        148.091            149        -1.0007
            450            450        149.077            150       -1.01648
            453            453         150.06            151       -1.03566
            456            456        151.041            152       -1.05709
            459            459        152.019            153        -1.0815
            462            462        152.995            154       -1.10898
            465            465        153.967            155       -1.14024
            468            468        154.936            156       -1.17537
            471            471        155.902            157       -1.21279
            474            474        156.859            158       -1.26105
            477            477        157.806            159       -1.31985
            480            480        158.744            160       -1.38975
            483            483        159.659            161       -1.48472
            486            486        160.563            162       -1.59134
            489            489        161.469            163        -1.6968
            492            492        162.372            164       -1.80568
            495            495        163.234            165       -1.95877
            498            498        164.067            166       -2.14579
            501            501        164.943            167       -2.28484
            504            504        165.891            168       -2.34426
            507            507         166.88            169       -2.35849
            510            510        167.895            170       -2.34332
            513            513        168.935            171       -2.30022
            516            516        170.012            172       -2.21513
            519            519        171.151            173       -2.06251
            522            522        172.337            174       -1.85647
            525            525         173.53            175       -1.64224
            528            528        174.697            176       -1.45626
            531            531        175.834            177       -1.30411
            534            534        176.944            178       -1.18268
            537            537        178.027            179       -1.09016
            540            540        179.091            180       -1.01916
            543            543        180.141            181      -0.964401
            546            546        181.177            182      -0.923958
            549            549        182.204            183      -0.894344
            552            552        183.227            184      -0.869512
            555            555        184.242            185      -0.853294
            558            558        185.254            186      -0.840464
            561            561        186.264            187       -0.83037
            564            564        187.271            188      -0.822935
            567            567        188.277            189      -0.817482
            570            570        189.281            190      -0.813179
            573            573        190.284            191      -0.810838
            576            576        191.287            192       -0.80878
            579            579        192.288            193      -0.807575
            582            582         193.29            194       -0.80695
            585            585        194.291            195      -0.805977
            588            588        195.293            196      -0.805195
            591            591        196.294            197      -0.805058
            594            594          197.3            198      -0.798542
            597            597        198.339            199      -0.755137
            600            600        199.438            200      -0.643303
            603            603        198.586            199      -0.472657
            606            606        197.751            198       -0.28459
            609            609        196.915            197     -0.0972847
            612            612         196.07            196      0.0801615
            615            615        195.203            195       0.230621
            618            618        194.314            194       0.357031
            621            621        193.407            193       0.462024
            624            624        192.481            192        0.54537
            627            627        191.541            191       0.612539
            630            630        190.589            190       0.666125
            633            633        189.628            189       0.709445
            636            636        188.673            188        0.76024
            639            639        187.743            187       0.838673
            642            642         186.82            186       0.924346
            645            645        185.873            185       0.983579
            648            648        184.899            184        1.01212
            651            651        183.901            183         1.0129
            654            654        182.884            182       0.992593
            657            657        181.857            181       0.961309
            660            660        180.826            180        0.92583
            663            663        179.796            179        0.89175
            666            666        178.768            178       0.859357
            669            669        177.747            177       0.835464
            672            672        176.734            176       0.820185
            675            675         175.73            175       0.815453
            678            678        174.732            174       0.816641
            681            681        173.737            173         0.8219
            684            684        172.742            172       0.826746
            687            687        171.747            171         0.8315
            690            690         170.75            170       0.834559
            693            693        169.752            169        0.83621
            696            696        168.754            168       0.838178
            699            699        167.756            167       0.839371
            702            702        166.757            166        0.83988
            705            705        165.756            165       0.838297
            708            708        164.754            164       0.835546
            711            711        163.752            163       0.833388
            714            714        162.751            162       0.831346
            717            717        161.749            161       0.829525
            720            720        160.748            160       0.828027
            723            723         159.75            159        0.82941
            726            726         158.75            158        0.82884
            729            729        157.749            157       0.827874
            732            732        156.749            156       0.827288
            735            735        155.749            155       0.826639
            738            738        154.749            154       0.825951
            741            741        153.748            153       0.825103
            744            744        152.748            152        0.82415
            747            747        151.747            151       0.823054
            750            750        150.746            150       0.821932
            753            753        149.745            149       0.820365
            756            756        148.744            148       0.819013
            759            759        147.743            147       0.817924
            762            762        146.743            146       0.816812
            765            765        145.742            145        0.81571
            768            768        144.741            144       0.814899
            771            771        143.741            143       0.814151
            774            774         142.74            142       0.813063
            777            777        141.739            141       0.811805
            780            780        140.738            140       0.810435
            783            783        139.737            139       0.809101
            786            786        138.736            138       0.807897
            789            789        137.735            137       0.806315
            792            792        136.733            136       0.804235
            795            795        135.733            135       0.803902
            798            798        134.735            134        0.80613
            801            801        133.737            133       0.808542
            804            804        132.739            132       0.810109
            807            807        131.739            131       0.810739
            810            810        130.739            130       0.810449
            813            813        129.736            129        0.80665
            816            816        128.731            128       0.801869
            819            819        127.728            127       0.797644
            822            822        126.724            126        0.79407
            825            825        125.721            125       0.790101
            828            828        124.718            124        0.78681
            831            831        123.717            123       0.785457
            834            834        122.716            122       0.784449
            837            837        121.717            121       0.785585
            840            840        120.718            120       0.786954
            843            843        119.719            119       0.788513
            846            846        118.722            118       0.791448
            849            849        117.726            117       0.796516
            852            852        116.736            116       0.806693
            855            855        115.754            115       0.826773
            858            858        114.792            114       0.868558
            861            861        113.862            113       0.945792
            864            864        112.996            112        1.09331
            867            867        112.208            111        1.32625
            870            870        111.505            110        1.65217
            873            873        110.862            109        2.04467
            876            876        110.222            108        2.44044
            879            879        109.526            107        2.77418
            882            882        108.725            106        2.99406
            885            885        107.791            105        3.06761
            888            888        106.752            104         3.0259
            891            891        105.637            103        2.89933
            894            894         104.47            102        2.71691
            897            897        103.264            101        2.49133
            900            900        102.038            100        2.24356
            903            903        100.816             99        1.99489
            906            906        99.6068             98        1.76052
            909            909        98.4273             97        1.56021
            912            912        97.2782             96        1.39398
            915            915        96.1605             95        1.26281
            918            918        95.0653             94        1.15656
            921            921        93.9897             93        1.07205
            924            924        92.9291             92        1.00411
            927            927        91.8813             91       0.950266
            930            930        90.8447             90       0.908775
            933            933        89.8158             89       0.875625
            936            936        88.7909             88       0.847047
            939            939        87.7699             87       0.822672
            942            942        86.7525             86       0.802302
            945            945        85.7364             85       0.783449
            948            948        84.7222             84         0.7666
            951            951        83.7137             83       0.755956
            954            954        82.7074             82       0.747584
            957            957         81.703             81       0.741346
            960            960        80.6988             80       0.735314
            963            963        79.6948             79       0.729501
            966            966         78.693             78       0.726004
            969            969        77.6924             77       0.723756
            972            972        76.6929             76       0.722724
            975            975        75.6926             75         0.7209
            978            978        74.6918             74       0.718542
            981            981        73.6915             73       0.716642
            984            984        72.6895             72       0.713034
            987            987        71.6875             71       0.709496
            990            990         70.686             70       0.706484
            993            993        69.6844             69       0.703337
            996            996        68.6829             68        0.70034
            999            999        67.6814             67       0.697308
           1002           1002        66.6801             66        0.69457
           1005           1005        65.6789             65       0.691858
           1008           1008        64.6777             64       0.689174
           1011           1011        63.6764             63       0.686483
           1014           1014        62.6753             62       0.683916
           1017           1017         61.674             61       0.681169
           1020           1020        60.6726             60       0.678353
           1023           1023        59.6712             59       0.675602
           1026           1026        58.6697             58       0.672727
           1029           1029        57.6681             57       0.669734
           1032           1032        56.6665             56       0.666789
           1035           1035        55.6649             55       0.663835
           1038           1038        54.6635             54       0.661132
           1041           1041        53.6623             53       0.658615
           1044           1044        52.6606             52       0.655678
           1047           1047        51.6594             51       0.653165
           1050           1050        50.6595             50        0.65197
           1053           1053        49.6611             49       0.652208
           1056           1056        48.6625             48       0.652375
           1059           1059        47.6636             47       0.652121
           1062           1062        46.6637             46        0.65099
           1065           1065        45.6629             45       0.648908
           1068           1068        44.6617             44       0.646435
           1071           1071        43.6602             43       0.643811
           1074           1074        42.6589             42       0.641231
           1077           1077        41.6574             41       0.638571
           1080           1080        40.6558             40       0.635762
           1083           1083        39.6544             39       0.633249
           1086           1086        38.6531             38         0.6308
           1089           1089        37.6518             37       0.628286
           1092           1092        36.6503             36       0.625709
           1095           1095        35.6488             35       0.623077
           1098           1098        34.6473             34       0.620487
           1101           1101        33.6458             33       0.617857
           1104           1104        32.6443             32       0.615292
           1107           1107        31.6429             31        0.61285
           1110           1110        30.6417             30       0.610547
           1113           1113        29.6406             29       0.608402
           1116           1116        28.6394             28       0.606149
           1119           1119        27.6383             27       0.603952
           1122           1122        26.6371             26       0.601734
           1125           1125        25.6359             25       0.599538
           1128           1128        24.6345             24       0.597172
           1131           1131        23.6331             23        0.59471
           1134           1134        22.6315             22       0.592223
           1137           1137        21.6299             21       0.589626
           1140           1140        20.6284             20       0.587169
           1143           1143        19.6271             19       0.584887
           1146           1146        18.6261             18       0.582988
           1149           1149        17.6254             17       0.581268
           1152           1152        16.6248             16       0.579689
           1155           1155        15.6242             15        0.57814
           1158           1158        14.6238             14       0.576763
           1161           1161        13.6231             13       0.575169
           1164           1164        12.6224             12       0.573445
           1167           1167        11.6215             11       0.571641
           1170           1170        10.6203             10       0.569606
           1173           1173        9.61895              9       0.567387
           1176           1176        8.61751              8       0.565102
           1179           1179        7.61596              7       0.562731
           1182           1182        6.61398              6       0.559979
           1185           1185        5.61211              5       0.557338
           1188           1188        4.61003              4       0.554519
           1191           1191         3.6079              3       0.551665
           1194           1194        2.60287              2       0.546189
           1197           1197        1.57596              1       0.520951
           1200           1200         0.5104              0       0.460893
           1203           1203        1.41125              1       0.371969
           1206           1206        2.29278              2       0.265257
           1209           1209        3.17199              3       0.156079
           1212           1212        4.05373              4      0.0488422
           1215           1215        4.93964              5     -0.0549606
           1218           1218        5.83925              6      -0.146614
           1221           1221        6.75549              7      -0.223381
           1224           1224        7.68338              8      -0.289746
           1227           1227        8.62515              9      -0.343624
           1230           1230        9.57813             10      -0.387384
           1233           1233        10.5406             11      -0.422555
           1236           1236        11.5112             12      -0.450402
           1239           1239        12.4895             13      -0.471201
           1242           1242        13.4722             14      -0.488041
           1245           1245        14.4586             15      -0.501478
           1248           1248        15.4471             16      -0.513005
           1251           1251        16.4395             17      -0.521007
           1254           1254        17.4331             18      -0.527874
           1257           1257        18.4287             19      -0.532835
           1260           1260        19.4255             20      -0.536807
           1263           1263        20.4221             21      -0.540945
           1266           1266        21.4197             22      -0.544129
           1269           1269        22.4176             23      -0.547144
           1272           1272        23.4152             24        -0.5504
           1275           1275        24.4137             25      -0.552778
           1278           1278        25.4122             26      -0.555188
           1281           1281        26.4108             27      -0.557498
           1284           1284        27.4095             28      -0.559823
           1287           1287        28.4083             29      -0.561958
           1290           1290        29.4072             30      -0.564034
           1293           1293        30.4062             31       -0.56602
           1296           1296        31.4053             32      -0.567922
           1299           1299        32.4045             33      -0.569747
           1302           1302        33.4038             34      -0.571513
           1305           1305        34.4031             35      -0.573237
           1308           1308        35.4024             36      -0.574976
           1311           1311        36.4018             37      -0.576634
           1314           1314        37.4013             38      -0.578258
           1317           1317        38.4008             39      -0.579837
           1320           1320        39.4003             40      -0.581448
           1323           1323        40.3999             41      -0.582954
           1326           1326        41.3995             42      -0.584436
           1329           1329        42.3991             43       -0.58594
           1332           1332        43.3987             44      -0.587518
           1335           1335        44.3982             45      -0.589119
           1338           1338        45.3977             46      -0.590751
           1341           1341        46.3971             47      -0.592522
           1344           1344        47.3965             48      -0.594237
           1347           1347        48.3958             49      -0.596104
           1350           1350        49.3952             50      -0.597909
           1353           1353        50.3943             51      -0.599905
           1356           1356        51.3936             52      -0.601853
           1359           1359        52.3928             53      -0.603868
           1362           1362        53.3919             54      -0.605924
           1365           1365        54.3911             55      -0.607975
           1368           1368        55.3903             56      -0.609976
           1371           1371        56.3895             57      -0.611986
           1374           1374        57.3887             58      -0.614105
           1377           1377        58.3878             59      -0.616194
           1380           1380        59.3869             60       -0.61835
           1383           1383         60.386             61      -0.620591
           1386           1386         61.385             62      -0.622851
           1389           1389         62.384             63      -0.625169
           1392           1392         63.383             64      -0.627482
           1395           1395         64.382             65      -0.629774
           1398           1398         65.381             66      -0.632118
           1401           1401          66.38             67      -0.634504
           1404           1404         67.379             68      -0.636821
           1407           1407         68.378             69      -0.639205
           1410           1410         69.377             70        -0.6416
           1413           1413         70.376             71      -0.644017
           1416           1416        71.3751             72      -0.646309
           1419           1419        72.3741             73      -0.648659
           1422           1422        73.3732             74      -0.650998
           1425           1425        74.3724             75      -0.653296
           1428           1428        75.3716             76      -0.655537
           1431           1431        76.3706             77      -0.657911
           1434           1434        77.3696             78      -0.660419
           1437           1437        78.3687             79      -0.662843
           1440           1440        79.3678             80       -0.66518
           1443           1443         80.367             81      -0.667535
           1446           1446         81.366             82      -0.670009
           1449           1449        82.3652             83       -0.67234
           1452           1452        83.3643             84       -0.67478
           1455           1455        84.3634             85       -0.67721
           1458           1458        85.3624             86       -0.67982
           1461           1461        86.3614             87      -0.682359
           1464           1464        87.3603             88      -0.685068
           1467           1467        88.3593             89      -0.687756
           1470           1470        89.3583             90       -0.69035
           1473           1473        90.3571             91      -0.693187
           1476           1476        91.3559             92      -0.696134
           1479           1479        92.3546             93       -0.69907
           1482           1482        93.3533             94      -0.702047
           1485           1485         94.352             95      -0.705086
           1488           1488        95.3508             96      -0.708063
           1491           1491        96.3494             97      -0.711143
           1494           1494         97.348             98      -0.714322
           1497           1497        98.3466             99      -0.717522
           1500           1500        99.3451            100      -0.720853
           1503           1503        100.342            101      -0.724558
           1506           1506        101.338            102      -0.728416
           1509           1509        102.334            103      -0.732515
           1512           1512         103.33            104      -0.736751
           1515           1515        104.326            105       -0.74117
           1518           1518        105.321            106      -0.745587
           1521           1521        106.317            107      -0.750059
           1524           1524        107.313            108       -0.75444
           1527           1527        108.309            109      -0.758678
           1530           1530        109.305            110      -0.762923
           1533           1533        110.301            111      -0.766987
           1536           1536        111.297            112      -0.771077
           1539           1539        112.293            113      -0.775271
           1542           1542        113.289            114      -0.779392
           1545           1545        114.286            115      -0.783581
           1548           1548        115.282            116      -0.787806
           1551           1551        116.278            117      -0.792168
           1554           1554        117.273            118      -0.796731
           1557           1557        118.269            119      -0.801305
           1560           1560        119.265            120      -0.806187
           1563           1563         120.26            121      -0.811188
           1566           1566        121.255            122      -0.816163
           1569           1569        122.251            123      -0.821333
           1572           1572        123.246            124      -0.826558
           1575           1575        124.241            125      -0.831957
           1578           1578        125.236            126       -0.83758
           1581           1581        126.231            127      -0.843493
           1584           1584        127.225            128      -0.849725
           1587           1587        128.219            129      -0.856221
           1590           1590        129.213            130      -0.862607
           1593           1593        130.207            131      -0.869941
           1596           1596          131.2            132      -0.877354
           1599           1599        132.193            133       -0.88489
           1602           1602        133.185            134      -0.893591
           1605           1605        134.177            135      -0.903036
           1608           1608        135.169            136      -0.912278
           1611           1611         136.16            137       -0.92233
           1614           1614         137.15            138      -0.932667
           1617           1617        138.141            139      -0.943288
           1620           1620         139.13            140      -0.955534
           1623           1623        140.118            141      -0.968662
           1626           1626        141.106            142      -0.982323
           1629           1629        142.094            143      -0.995887
           1632           1632         143.08            144       -1.01163
           1635           1635        144.063            145       -1.02988
           1638           1638        145.046            146        -1.0496
           1641           1641        146.028            147       -1.06941
           1644           1644        147.008            148       -1.09162
           1647           1647        147.987            149       -1.11533
           1650           1650        148.964            150       -1.14156
           1653           1653        149.938            151       -1.17032
           1656           1656        150.909            152       -1.20251
           1659           1659        151.876            153       -1.23898
           1662           1662        152.841            154       -1.27898
           1665           1665        153.798            155        -1.3267
           1668           1668        154.749            156       -1.38186
           1671           1671        155.687            157       -1.45089
           1674           1674        156.607            158       -1.53921
           1677           1677        157.517            159        -1.6402
           1680           1680        158.429            160       -1.73862
           1683           1683        159.346            161       -1.83085
           1686           1686        160.272            162       -1.91406
           1689           1689        161.207            163       -1.98745
           1692           1692        162.154            164        -2.0471
           1695           1695        163.119            165       -2.08689
           1698           1698        164.109            166       -2.09935
           1701           1701        165.129            167       -2.07837
           1704           1704        166.184            168       -2.01803
           1707           1707        167.272            169       -1.92158
           1710           1710        168.394            170       -1.78802
           1713           1713        169.535            171       -1.63138
           1716           1716         170.68            172       -1.47143
           1719           1719        171.812            173       -1.32537
           1722           1722        172.921            174       -1.20384
           1725           1725        174.009            175       -1.10651
           1728           1728        175.078            176       -1.03102
           1731           1731        176.128            177      -0.975494
           1734           1734        177.168            178      -0.931401
           1737           1737        178.197            179      -0.899556
           1740           1740        179.221            180      -0.873946
           1743           1743        180.237            181      -0.855838
           1746           1746        181.251            182      -0.841774
           1749           1749        182.259            183      -0.832629
           1752           1752        183.267            184       -0.82508
           1755           1755        184.273            185      -0.818565
           1758           1758        185.277            186      -0.814579
           1761           1761        186.281            187      -0.811517
           1764           1764        187.283            188      -0.809405
           1767           1767        188.285            189       -0.80771
           1770           1770        189.287            190      -0.807211
           1773           1773        190.288            191      -0.806805
           1776           1776        191.289            192      -0.806671
           1779           1779        192.289            193      -0.806522
           1782           1782         193.29            194      -0.806591
           1785           1785        194.291            195       -0.80681
           1788           1788        195.291            196      -0.807188
           1791           1791        196.291            197      -0.807685
           1794           1794        197.292            198      -0.808185
           1797           1797        198.292            199      -0.808582
           1799           1799        198.959        199.667      -0.808774

________________________________________________________________________________
Not signed                                                        STARe SW 12.00