File: Polymers lab/2/DSC/!^ESERC TAPPO PE  L=72,6.txt
              0              0      0.0135183              0     0.00873355
              3              3        1.01078              1     0.00697507
              6              6        1.96615              2     -0.0219393
              9              9        2.85474              3     -0.0943117
             12             12        3.71764              4      -0.183628
             15             15        4.57931              5      -0.274047
             18             18        5.45269              6      -0.357131
             21             21        6.34653              7      -0.427122
             24             24        7.25722              8      -0.486322
             27             27        8.18739              9      -0.532947
             30             30        9.13417             10      -0.568817
             33             33        10.0949             11      -0.595654
             36             36        11.0655             12      -0.616075
             39             39        12.0442             13      -0.631159
             42             42          13.03             14      -0.641642
             45             45        14.0201             15      -0.649359
             48             48        15.0137             16      -0.654754
             51             51        16.0102             17      -0.658181
             54             54        17.0074             18      -0.661212
             57             57        18.0063             19      -0.663154
             60             60        19.0057             20      -0.664729
             63             63        20.0045             21      -0.666721
             66             66        21.0034             22        -0.6686
             69             69        22.0023             23      -0.670588
             72             72        23.0011             24      -0.672578
             75             75        23.9998             25      -0.674679
             78             78        24.9982             26       -0.67696
             81             81        25.9965             27      -0.679339
             84             84        26.9947             28      -0.681815
             87             87        27.9927             29      -0.684413
             90             90        28.9905             30      -0.687203
             93             93        29.9883             31      -0.689988
             96             96        30.9859             32      -0.692893
             99             99        31.9835             33      -0.695804
            102            102        32.9812             34      -0.698718
            105            105        33.9789             35      -0.701579
            108            108        34.9766             36      -0.704471
            111            111        35.9744             37      -0.707319
            114            114        36.9723             38      -0.710168
            117            117        37.9701             39      -0.713021
            120            120        38.9679             40      -0.715872
            123            123        39.9661             41      -0.718541
            126            126        40.9643             42      -0.721134
            129            129        41.9628             43      -0.723584
            132            132        42.9615             44      -0.725918
            135            135          43.96             45       -0.72835
            138            138        44.9587             46      -0.730691
            141            141        45.9572             47      -0.733144
            144            144        46.9557             48      -0.735707
            147            147         47.954             49      -0.738322
            150            150        48.9523             50      -0.741009
            153            153        49.9505             51      -0.743731
            156            156        50.9488             52      -0.746442
            159            159        51.9469             53      -0.749271
            162            162        52.9451             54      -0.752071
            165            165        53.9432             55      -0.754934
            168            168        54.9412             56      -0.757836
            171            171        55.9392             57      -0.760816
            174            174        56.9372             58       -0.76384
            177            177        57.9351             59      -0.766899
            180            180        58.9329             60      -0.770018
            183            183        59.9307             61      -0.773184
            186            186        60.9286             62      -0.776336
            189            189        61.9264             63      -0.779499
            192            192        62.9243             64      -0.782671
            195            195        63.9221             65      -0.785912
            198            198        64.9199             66      -0.789128
            201            201        65.9177             67      -0.792371
            204            204        66.9155             68      -0.795664
            207            207        67.9133             69      -0.798961
            210            210        68.9111             70       -0.80226
            213            213         69.909             71      -0.805576
            216            216        70.9067             72      -0.808978
            219            219        71.9044             73      -0.812375
            222            222        72.9022             74      -0.815781
            225            225        73.8998             75      -0.819263
            228            228        74.8975             76      -0.822812
            231            231         75.895             77      -0.826401
            234            234        76.8926             78      -0.830043
            237            237          77.89             79      -0.833818
            240            240        78.8872             80      -0.837735
            243            243        79.8843             81      -0.841737
            246            246        80.8814             82      -0.845782
            249            249        81.8782             83      -0.850031
            252            252        82.8749             84      -0.854468
            255            255        83.8713             85      -0.859057
            258            258        84.8678             86       -0.86367
            261            261        85.8637             87      -0.868738
            264            264        86.8593             88      -0.874051
            267            267        87.8547             89      -0.879572
            270            270        88.8501             90      -0.885045
            273            273        89.8445             91      -0.891366
            276            276        90.8389             92      -0.897729
            279            279        91.8331             93       -0.90428
            282            282        92.8274             94      -0.910794
            285            285        93.8208             95      -0.917988
            288            288         94.814             96      -0.925409
            291            291         95.807             97      -0.932995
            294            294        96.7993             98      -0.941241
            297            297        97.7913             99      -0.949716
            300            300        98.7833            100      -0.958183
            303            303        99.7704            101       -0.96801
            306            306        100.757            102      -0.978043
            309            309        101.744            103      -0.988084
            312            312         102.73            104      -0.998828
            315            315        103.715            105       -1.01023
            318            318          104.7            106       -1.02212
            321            321        105.684            107       -1.03399
            324            324        106.667            108       -1.04771
            327            327        107.647            109       -1.06258
            330            330        108.626            110       -1.07874
            333            333        109.605            111       -1.09552
            336            336        110.581            112       -1.11384
            339            339        111.555            113       -1.13447
            342            342        112.527            114       -1.15632
            345            345        113.494            115       -1.18158
            348            348        114.459            116       -1.20921
            351            351        115.421            117         -1.239
            354            354        116.378            118       -1.27272
            357            357        117.329            119       -1.31078
            360            360        118.276            120        -1.3522
            363            363        119.216            121        -1.3988
            366            366        120.149            122       -1.45172
            369            369        121.073            123       -1.51129
            372            372        121.986            124       -1.57916
            375            375        122.893            125       -1.65272
            378            378        123.786            126       -1.73621
            381            381        124.667            127       -1.82949
            384            384        125.532            128       -1.93581
            387            387        126.376            129       -2.05834
            390            390         127.19            130       -2.20394
            393            393        127.994            131       -2.35801
            396            396        128.808            132       -2.50401
            399            399        129.635            133       -2.64054
            402            402        130.468            134       -2.77179
            405            405          131.3            135       -2.90364
            408            408        132.133            136       -3.03593
            411            411        132.968            137       -3.16582
            414            414        133.813            138       -3.28793
            417            417        134.666            139       -3.40406
            420            420        135.562            140       -3.48663
            423            423        136.553            141        -3.4949
            426            426        137.717            142       -3.36673
            429            429        139.098            143       -3.06796
            432            432        140.575            144       -2.69388
            435            435        142.018            145       -2.34611
            438            438        143.396            146       -2.04941
            441            441        144.703            147       -1.80786
            444            444         145.95            148       -1.61446
            447            447        147.147            149       -1.45954
            450            450        148.301            150       -1.33859
            453            453        149.424            151       -1.24247
            456            456        150.522            152       -1.16551
            459            459        151.598            153       -1.10573
            462            462         152.66            154       -1.05767
            465            465        153.708            155       -1.02028
            468            468        154.746            156      -0.990392
            471            471        155.776            157       -0.96727
            474            474        156.799            158      -0.949853
            477            477        157.818            159       -0.93524
            480            480        158.832            160      -0.924214
            483            483        159.844            161      -0.915283
            486            486        160.853            162      -0.909212
            489            489        161.859            163      -0.904281
            492            492        162.864            164      -0.900926
            495            495        163.869            165      -0.898097
            498            498        164.873            166      -0.895162
            501            501        165.876            167      -0.893273
            504            504        166.878            168      -0.892278
            507            507        167.879            169      -0.892071
            510            510         168.88            170      -0.891737
            513            513        169.881            171      -0.891687
            516            516        170.882            172      -0.891805
            519            519        171.882            173      -0.892036
            522            522        172.883            174      -0.892362
            525            525        173.883            175      -0.892845
            528            528        174.883            176      -0.893438
            531            531        175.883            177      -0.894123
            534            534        176.883            178      -0.894794
            537            537        177.883            179      -0.895547
            540            540        178.883            180      -0.896153
            543            543        179.883            181      -0.896894
            546            546        180.883            182      -0.897619
            549            549        181.883            183       -0.89836
            552            552        182.883            184      -0.899055
            555            555        183.883            185       -0.89964
            558            558        184.884            186       -0.90032
            561            561        185.884            187      -0.900883
            564            564        186.884            188      -0.901375
            567            567        187.885            189      -0.902006
            570            570        188.885            190      -0.902547
            573            573        189.885            191      -0.903263
            576            576        190.886            192       -0.90397
            579            579        191.886            193      -0.904636
            582            582        192.886            194        -0.9052
            585            585        193.887            195      -0.905852
            588            588        194.887            196       -0.90648
            591            591        195.887            197      -0.907627
            594            594        196.895            198      -0.902264
            597            597        197.951            199      -0.857705
            600            600        199.083            200       -0.75032
            603            603        198.284            199      -0.585104
            606            606        197.516            198       -0.39523
            609            609         196.75            197      -0.204195
            612            612        195.973            196     -0.0216404
            615            615        195.174            195       0.141565
            618            618        194.347            194       0.281904
            621            621        193.495            193       0.402087
            624            624        192.631            192       0.511578
            627            627        191.779            191       0.630988
            630            630        190.936            190       0.757837
            633            633         190.07            189       0.865668
            636            636        189.162            188       0.939111
            639            639         188.21            187       0.976901
            642            642        187.226            186       0.988403
            645            645        186.217            185        0.98023
            648            648        185.194            184       0.961595
            651            651         184.17            183       0.941429
            654            654        183.147            182       0.921556
            657            657        182.127            181       0.904814
            660            660        181.113            180       0.892541
            663            663        180.108            179       0.888223
            666            666        179.111            178       0.889997
            669            669        178.119            177       0.895898
            672            672        177.131            176       0.904443
            675            675        176.141            175       0.911487
            678            678         175.15            174       0.918698
            681            681        174.156            173       0.922167
            684            684        173.157            172         0.9223
            687            687        172.156            171       0.921262
            690            690        171.156            170       0.920215
            693            693        170.154            169       0.918634
            696            696        169.154            168        0.91765
            699            699        168.153            167       0.916545
            702            702        167.153            166       0.915448
            705            705        166.152            165       0.914492
            708            708        165.152            164       0.913627
            711            711        164.151            163        0.91264
            714            714         163.15            162         0.9115
            717            717        162.149            161       0.910269
            720            720        161.149            160        0.90933
            723            723        160.148            159       0.907878
            726            726        159.145            158       0.905336
            729            729        158.142            157       0.902544
            732            732         157.14            156       0.900453
            735            735        156.137            155       0.897707
            738            738        155.135            154       0.895845
            741            741        154.134            153       0.894777
            744            744        153.134            152       0.894379
            747            747        152.134            151       0.894225
            750            750        151.135            150       0.894103
            753            753        150.134            149       0.893577
            756            756        149.134            148       0.893318
            759            759        148.135            147       0.893063
            762            762        147.134            146       0.892299
            765            765        146.132            145       0.890872
            768            768        145.129            144       0.887603
            771            771        144.125            143       0.884363
            774            774        143.121            142       0.881381
            777            777        142.117            141        0.87796
            780            780        141.117            140       0.877669
            783            783        140.119            139       0.879005
            786            786        139.121            138       0.880303
            789            789        138.122            137       0.881104
            792            792        137.124            136       0.882078
            795            795        136.123            135       0.881163
            798            798         135.12            134       0.878974
            801            801        134.117            133       0.876701
            804            804        133.114            132       0.874218
            807            807        132.111            131        0.87147
            810            810        131.107            130       0.868542
            813            813        130.104            129       0.865542
            816            816          129.1            128       0.862372
            819            819        128.096            127       0.859459
            822            822        127.092            126       0.856404
            825            825        126.088            125       0.853113
            828            828        125.084            124       0.850076
            831            831        124.083            123       0.849006
            834            834        123.085            122       0.850757
            837            837        122.087            121       0.852748
            840            840        121.091            120       0.856071
            843            843        120.099            119       0.862401
            846            846        119.128            118       0.885091
            849            849        118.301            117        1.02089
            852            852        117.701            116        1.33479
            855            855        117.195            115        1.72242
            858            858         116.64            114        2.07219
            861            861         116.01            113         2.3624
            864            864        115.323            112        2.60889
            867            867        114.591            111        2.81951
            870            870         113.82            110        3.00037
            873            873        113.008            109        3.14798
            876            876        112.159            108        3.26755
            879            879         111.27            107        3.35607
            882            882        110.343            106        3.41372
            885            885        109.379            105        3.44291
            888            888        108.375            104        3.44092
            891            891        107.332            103        3.40799
            894            894         106.24            102        3.33717
            897            897        105.098            101        3.22634
            900            900        103.914            100        3.08272
            903            903        102.734             99        2.93352
            906            906        101.545             98        2.77883
            909            909        100.353             97        2.62255
            912            912        99.1614             96        2.46677
            915            915        97.9763             95        2.31703
            918            918        96.8005             94        2.17519
            921            921        95.6385             93        2.04468
            924            924        94.4905             92        1.92563
            927            927        93.3563             91        1.81773
            930            930         92.236             90        1.72105
            933            933        91.1255             89        1.63226
            936            936        90.0255             88        1.55201
            939            939        88.9354             87        1.47966
            942            942        87.8547             86        1.41477
            945            945        86.7829             85        1.35705
            948            948          85.72             84        1.30626
            951            951        84.6661             83        1.26252
            954            954        83.6193             82        1.22434
            957            957        82.5796             81        1.19172
            960            960        81.5456             80        1.16352
            963            963        80.5171             79        1.13955
            966            966        79.4932             78        1.11916
            969            969         78.473             77        1.10163
            972            972        77.4571             76         1.0874
            975            975        76.4442             75         1.0755
            978            978         75.432             74        1.06409
            981            981        74.4228             73          1.055
            984            984        73.4118             72        1.04465
            987            987        72.4014             71        1.03472
            990            990        71.3901             70        1.02419
            993            993        70.3748             69        1.01083
            996            996        69.3583             68       0.996535
            999            999        68.3423             67       0.982737
           1002           1002        67.3266             66       0.969273
           1005           1005        66.3111             65       0.955926
           1008           1008        65.2952             64        0.94237
           1011           1011        64.2795             63       0.928995
           1014           1014         63.264             62         0.9159
           1017           1017        62.2483             61       0.902682
           1020           1020        61.2327             60       0.889555
           1023           1023        60.2172             59       0.876553
           1026           1026         59.205             58       0.865997
           1029           1029        58.1955             57       0.857432
           1032           1032        57.1873             56       0.849814
           1035           1035        56.1787             55       0.841994
           1038           1038        55.1697             54       0.833877
           1041           1041        54.1605             53       0.825645
           1044           1044        53.1513             52       0.817462
           1047           1047        52.1421             51       0.809346
           1050           1050        51.1329             50       0.801238
           1053           1053         50.124             49       0.793391
           1056           1056        49.1151             48       0.785539
           1059           1059        48.1059             47       0.777532
           1062           1062        47.0978             46       0.770325
           1065           1065        46.0906             45       0.763769
           1068           1068        45.0844             44       0.758011
           1071           1071        44.0799             43       0.753373
           1074           1074        43.0778             42       0.750479
           1077           1077        42.0768             41       0.748353
           1080           1080        41.0746             40       0.745399
           1083           1083        40.0729             39       0.742745
           1086           1086        39.0684             38       0.738225
           1089           1089        38.0633             37       0.733346
           1092           1092        37.0595             36       0.729353
           1095           1095        36.0552             35       0.725029
           1098           1098         35.052             34       0.721443
           1101           1101        34.0498             33       0.718632
           1104           1104        33.0479             32        0.71601
           1107           1107         32.045             31       0.712688
           1110           1110        31.0421             30        0.70936
           1113           1113        30.0391             29       0.706036
           1116           1116        29.0353             28       0.702205
           1119           1119        28.0318             27       0.698493
           1122           1122        27.0284             26        0.69494
           1125           1125        26.0252             25       0.691566
           1128           1128        25.0225             24       0.688474
           1131           1131          24.02             23       0.685525
           1134           1134        23.0176             22       0.682687
           1137           1137        22.0151             21       0.679827
           1140           1140        21.0125             20       0.676874
           1143           1143        20.0099             19       0.673915
           1146           1146        19.0072             18        0.67095
           1149           1149        18.0046             17       0.668047
           1152           1152        17.0021             16       0.665225
           1155           1155        15.9997             15       0.662477
           1158           1158        14.9976             14       0.659936
           1161           1161        13.9956             13       0.657451
           1164           1164        12.9938             12       0.655133
           1167           1167         11.992             11       0.652818
           1170           1170        10.9902             10        0.65052
           1173           1173        9.98827              9       0.648151
           1176           1176        8.98611              8       0.645634
           1179           1179        7.98354              7       0.642864
           1182           1182        6.98127              6       0.640303
           1185           1185         5.9786              5       0.637485
           1188           1188        4.97506              4       0.634119
           1191           1191        3.97103              3       0.630451
           1194           1194        2.96226              2       0.623723
           1197           1197        1.91326              1       0.590986
           1200           1200       0.807686              0       0.521807
           1203           1203        1.65039              1       0.420878
           1206           1206        2.46859              2       0.303735
           1209           1209        3.28069              3        0.18224
           1212           1212        4.09634              4      0.0626527
           1215           1215        4.92116              5     -0.0513605
           1218           1218        5.76476              6        -0.1535
           1221           1221        6.63172              7      -0.240713
           1224           1224        7.51674              8      -0.316402
           1227           1227        8.42041              9      -0.380118
           1230           1230        9.34326             10      -0.431456
           1233           1233        10.2785             11      -0.474814
           1236           1236         11.227             12      -0.509599
           1239           1239         12.186             13      -0.537529
           1242           1242        13.1544             14      -0.559351
           1245           1245        14.1279             15      -0.577912
           1248           1248        15.1066             16      -0.593044
           1251           1251         16.091             17      -0.604451
           1254           1254        17.0798             18       -0.61301
           1257           1257        18.0689             19      -0.621365
           1260           1260        19.0603             20      -0.628209
           1263           1263        20.0544             21      -0.633255
           1266           1266        21.0485             22      -0.638394
           1269           1269        22.0439             23      -0.642627
           1272           1272        23.0401             24       -0.64635
           1275           1275        24.0359             25      -0.650309
           1278           1278        25.0323             26      -0.653912
           1281           1281         26.029             27      -0.657378
           1284           1284        27.0259             28      -0.660666
           1287           1287        28.0232             29      -0.663686
           1290           1290        29.0208             30      -0.666592
           1293           1293        30.0185             31      -0.669403
           1296           1296        31.0162             32      -0.672154
           1299           1299        32.0142             33      -0.674788
           1302           1302        33.0121             34      -0.677485
           1305           1305        34.0102             35      -0.680058
           1308           1308        35.0083             36      -0.682694
           1311           1311        36.0062             37      -0.685391
           1314           1314        37.0042             38      -0.688085
           1317           1317        38.0022             39      -0.690775
           1320           1320        39.0002             40      -0.693471
           1323           1323        39.9982             41       -0.69619
           1326           1326        40.9963             42       -0.69889
           1329           1329        41.9943             43        -0.7016
           1332           1332        42.9924             44      -0.704298
           1335           1335        43.9904             45      -0.707044
           1338           1338        44.9884             46      -0.709868
           1341           1341        45.9863             47      -0.712711
           1344           1344        46.9843             48      -0.715542
           1347           1347        47.9822             49      -0.718449
           1350           1350        48.9801             50      -0.721347
           1353           1353        49.9779             51      -0.724345
           1356           1356        50.9757             52      -0.727345
           1359           1359        51.9734             53      -0.730397
           1362           1362         52.971             54      -0.733577
           1365           1365        53.9685             55      -0.736821
           1368           1368        54.9661             56      -0.740076
           1371           1371        55.9634             57      -0.743463
           1374           1374        56.9608             58      -0.746856
           1377           1377        57.9582             59      -0.750255
           1380           1380        58.9554             60      -0.753772
           1383           1383        59.9527             61      -0.757278
           1386           1386          60.95             62      -0.760814
           1389           1389        61.9472             63      -0.764447
           1392           1392        62.9442             64      -0.768185
           1395           1395        63.9412             65      -0.771998
           1398           1398        64.9381             66      -0.775821
           1401           1401        65.9348             67       -0.77986
           1404           1404        66.9316             68      -0.783891
           1407           1407        67.9283             69      -0.787927
           1410           1410        68.9249             70      -0.792101
           1413           1413        69.9214             71      -0.796405
           1416           1416        70.9178             72      -0.800776
           1419           1419        71.9141             73       -0.80521
           1422           1422        72.9102             74      -0.809832
           1425           1425        73.9062             75      -0.814546
           1428           1428        74.9022             76      -0.819246
           1431           1431         75.898             77      -0.824187
           1434           1434        76.8937             78      -0.829199
           1437           1437        77.8894             79      -0.834251
           1440           1440         78.885             80      -0.839393
           1443           1443        79.8803             81       -0.84475
           1446           1446        80.8755             82      -0.850248
           1449           1449        81.8705             83      -0.855894
           1452           1452        82.8654             84      -0.861645
           1455           1455        83.8599             85      -0.867727
           1458           1458        84.8542             86       -0.87405
           1461           1461        85.8482             87      -0.880561
           1464           1464        86.8424             88      -0.887009
           1467           1467         87.836             89      -0.893926
           1470           1470        88.8292             90      -0.901193
           1473           1473        89.8221             91      -0.908694
           1476           1476        90.8147             92      -0.916433
           1479           1479        91.8058             93       -0.92544
           1482           1482         92.797             94      -0.934412
           1485           1485        93.7883             95      -0.943286
           1488           1488        94.7782             96      -0.953368
           1491           1491        95.7674             97      -0.964031
           1494           1494        96.7565             98      -0.974793
           1497           1497        97.7449             99      -0.986139
           1500           1500        98.7332            100      -0.997673
           1503           1503        99.7181            101       -1.00923
           1506           1506        100.701            102       -1.02222
           1509           1509        101.683            103       -1.03588
           1512           1512        102.664            104       -1.05049
           1515           1515        103.645            105       -1.06546
           1518           1518        104.624            106       -1.08168
           1521           1521        105.602            107       -1.09848
           1524           1524        106.579            108       -1.11644
           1527           1527        107.554            109       -1.13589
           1530           1530        108.526            110       -1.15753
           1533           1533        109.496            111       -1.18075
           1536           1536        110.464            112       -1.20572
           1539           1539         111.43            113       -1.23258
           1542           1542        112.392            114       -1.26174
           1545           1545        113.351            115       -1.29371
           1548           1548        114.308            116       -1.32791
           1551           1551        115.257            117       -1.36699
           1554           1554        116.203            118       -1.40982
           1557           1557        117.142            119       -1.45758
           1560           1560        118.074            120       -1.51047
           1563           1563        118.999            121       -1.56964
           1566           1566        119.914            122       -1.63629
           1569           1569         120.82            123        -1.7097
           1572           1572        121.715            124        -1.7918
           1575           1575        122.594            125        -1.8872
           1578           1578        123.458            126       -1.99365
           1581           1581         124.31            127        -2.1098
           1584           1584        125.149            128       -2.23634
           1587           1587        125.975            129       -2.37253
           1590           1590        126.792            130       -2.51617
           1593           1593        127.601            131       -2.66602
           1596           1596        128.406            132       -2.81968
           1599           1599         129.21            133       -2.97342
           1602           1602        130.032            134       -3.11426
           1605           1605        130.882            135       -3.23195
           1608           1608        131.769            136       -3.32131
           1611           1611        132.688            137       -3.38522
           1614           1614        133.638            138        -3.4258
           1617           1617        134.617            139       -3.44268
           1620           1620        135.638            140       -3.42695
           1623           1623        136.727            141       -3.35816
           1626           1626        137.914            142       -3.21125
           1629           1629        139.199            143       -2.98828
           1632           1632        140.592            144       -2.68019
           1635           1635        142.015            145       -2.34851
           1638           1638        143.396            146       -2.04949
           1641           1641        144.715            147       -1.79901
           1644           1644        145.965            148       -1.60214
           1647           1647        147.166            149       -1.44429
           1650           1650        148.325            150       -1.31952
           1653           1653        149.449            151       -1.22231
           1656           1656        150.545            152       -1.14713
           1659           1659        151.622            153        -1.0871
           1662           1662        152.683            154       -1.03965
           1665           1665        153.729            155       -1.00334
           1668           1668        154.765            156      -0.975863
           1671           1671        155.793            157      -0.953891
           1674           1674        156.815            158      -0.936748
           1677           1677        157.833            159      -0.923559
           1680           1680        158.846            160      -0.913734
           1683           1683        159.855            161      -0.906685
           1686           1686        160.863            162      -0.900584
           1689           1689        161.869            163       -0.89671
           1692           1692        162.873            164      -0.893708
           1695           1695        163.877            165      -0.891045
           1698           1698        164.881            166      -0.889089
           1701           1701        165.883            167      -0.887955
           1704           1704        166.885            168      -0.886948
           1707           1707        167.886            169       -0.88676
           1710           1710        168.886            170      -0.886855
           1713           1713        169.886            171      -0.887289
           1716           1716        170.887            172      -0.887554
           1719           1719        171.887            173      -0.887983
           1722           1722        172.887            174       -0.88852
           1725           1725        173.887            175      -0.889249
           1728           1728        174.887            176      -0.889882
           1731           1731        175.887            177      -0.890639
           1734           1734        176.887            178      -0.891418
           1737           1737        177.887            179      -0.892295
           1740           1740        178.887            180       -0.89317
           1743           1743        179.887            181      -0.893917
           1746           1746        180.887            182      -0.894824
           1749           1749        181.887            183      -0.895592
           1752           1752        182.887            184      -0.896368
           1755           1755        183.887            185      -0.897044
           1758           1758        184.887            186      -0.897725
           1761           1761        185.887            187      -0.898388
           1764           1764        186.887            188      -0.898964
           1767           1767        187.888            189      -0.899585
           1770           1770        188.888            190      -0.900263
           1773           1773        189.888            191      -0.901049
           1776           1776        190.888            192      -0.901818
           1779           1779        191.888            193      -0.902646
           1782           1782        192.888            194      -0.903595
           1785           1785        193.888            195      -0.904462
           1788           1788        194.889            196      -0.905309
           1791           1791        195.889            197      -0.906137
           1794           1794        196.889            198      -0.906917
           1797           1797         197.89            199      -0.907524
           1799           1799        198.557        199.667      -0.907998

________________________________________________________________________________
Not signed                                                        STARe SW 12.00