File: Polymers lab/2/DSC/!^ESERC  PLA pent press L=77,1.txt
              0              0      0.0236884              0      0.0109441
              3              3        1.02307              1      0.0106746
              6              6        1.98058              2    -0.00900094
              9              9        2.84636              3     -0.0713354
             12             12        3.69025              4      -0.144054
             15             15        4.53637              5      -0.215982
             18             18        5.39449              6      -0.282549
             21             21        6.27319              7      -0.339721
             24             24        7.17168              8      -0.387829
             27             27        8.09368              9      -0.425069
             30             30        9.03281             10       -0.45439
             33             33        9.98647             11      -0.476979
             36             36        10.9515             12        -0.4943
             39             39        11.9267             13      -0.506837
             42             42        12.9102             14      -0.515536
             45             45        13.8967             15      -0.522809
             48             48        14.8874             16      -0.528166
             51             51        15.8825             17      -0.531407
             54             54        16.8789             18      -0.534074
             57             57        17.8775             19      -0.535674
             60             60        18.8764             20      -0.537165
             63             63        19.8756             21      -0.538509
             66             66        20.8746             22      -0.539921
             69             69        21.8741             23       -0.54115
             72             72        22.8735             24      -0.542436
             75             75        23.8727             25       -0.54378
             78             78         24.872             26      -0.545115
             81             81        25.8712             27      -0.546466
             84             84        26.8704             28      -0.547858
             87             87        27.8697             29       -0.54924
             90             90        28.8688             30      -0.550677
             93             93        29.8679             31      -0.552119
             96             96        30.8669             32      -0.553663
             99             99        31.8657             33      -0.555236
            102            102        32.8644             34      -0.556948
            105            105        33.8629             35      -0.558704
            108            108        34.8613             36      -0.560539
            111            111        35.8596             37      -0.562471
            114            114        36.8574             38      -0.564593
            117            117        37.8552             39      -0.566794
            120            120        38.8527             40      -0.569091
            123            123        39.8498             41      -0.571636
            126            126        40.8466             42      -0.574334
            129            129        41.8431             43      -0.577148
            132            132        42.8399             44      -0.579881
            135            135        43.8359             45      -0.583033
            138            138        44.8317             46      -0.586238
            141            141        45.8269             47      -0.589814
            144            144        46.8222             48      -0.593362
            147            147        47.8151             49      -0.598121
            150            150        48.8075             50      -0.603146
            153            153        49.7995             51      -0.608383
            156            156        50.7917             52      -0.613543
            159            159        51.7839             53      -0.618742
            162            162        52.7761             54       -0.62395
            165            165        53.7686             55      -0.629045
            168            168        54.7613             56      -0.634068
            171            171        55.7542             57       -0.63896
            174            174        56.7474             58       -0.64377
            177            177        57.7406             59      -0.648567
            180            180        58.7344             60      -0.653129
            183            183        59.7281             61      -0.657711
            186            186        60.7218             62      -0.662328
            189            189        61.7159             63      -0.666765
            192            192        62.7103             64      -0.671046
            195            195        63.7048             65      -0.675285
            198            198        64.6991             66       -0.67972
            201            201        65.6942             67      -0.683707
            204            204        66.6906             68      -0.687013
            207            207        67.6874             69      -0.690157
            210            210         68.686             70      -0.692326
            213            213        69.6845             71      -0.694582
            216            216        70.6828             72       -0.69698
            219            219        71.6814             73      -0.699192
            222            222        72.6802             74       -0.70134
            225            225        73.6789             75       -0.70354
            228            228        74.6775             76      -0.705783
            231            231        75.6761             77       -0.70807
            234            234        76.6746             78      -0.710424
            237            237        77.6729             79      -0.712877
            240            240        78.6712             80      -0.715357
            243            243        79.6692             81      -0.717963
            246            246        80.6674             82      -0.720554
            249            249        81.6655             83      -0.723176
            252            252        82.6634             84       -0.72588
            255            255        83.6614             85      -0.728609
            258            258        84.6592             86       -0.73143
            261            261        85.6569             87       -0.73431
            264            264        86.6543             88      -0.737391
            267            267        87.6517             89      -0.740487
            270            270        88.6489             90      -0.743675
            273            273        89.6461             91        -0.7469
            276            276        90.6432             92      -0.750214
            279            279        91.6402             93      -0.753574
            282            282        92.6372             94      -0.756965
            285            285        93.6342             95      -0.760373
            288            288         94.631             96      -0.763887
            291            291        95.6279             97      -0.767385
            294            294        96.6247             98      -0.770937
            297            297        97.6216             99      -0.774485
            300            300        98.6185            100      -0.778042
            303            303        99.6118            101      -0.781552
            306            306        100.605            102      -0.785072
            309            309        101.598            103      -0.788532
            312            312        102.592            104      -0.791877
            315            315        103.586            105      -0.795182
            318            318         104.58            106      -0.798456
            321            321        105.574            107      -0.801563
            324            324        106.568            108        -0.8046
            327            327        107.562            109      -0.807594
            330            330        108.557            110      -0.810529
            333            333        109.552            111      -0.813314
            336            336        110.546            112      -0.816074
            339            339        111.541            113      -0.818773
            342            342        112.536            114      -0.821438
            345            345        113.532            115      -0.823981
            348            348        114.527            116      -0.826542
            351            351        115.522            117      -0.829117
            354            354        116.517            118      -0.831736
            357            357        117.512            119      -0.834427
            360            360        118.507            120      -0.837303
            363            363        119.502            121      -0.840201
            366            366        120.497            122      -0.843078
            369            369        121.491            123      -0.846355
            372            372        122.484            124      -0.850105
            375            375        123.476            125      -0.854554
            378            378        124.467            126      -0.859551
            381            381        125.456            127      -0.865742
            384            384        126.444            128      -0.872427
            387            387         127.43            129      -0.880725
            390            390        128.415            130      -0.889157
            393            393        129.399            131      -0.898341
            396            396        130.382            132      -0.907844
            399            399        131.365            133       -0.91759
            402            402        132.346            134      -0.928023
            405            405        133.328            135      -0.938262
            408            408        134.311            136      -0.948422
            411            411        135.292            137      -0.958877
            414            414        136.274            138      -0.969341
            417            417        137.256            139       -0.97955
            420            420        138.238            140      -0.990158
            423            423        139.218            141       -1.00155
            426            426        140.196            142       -1.01408
            429            429        141.171            143       -1.02832
            432            432         142.14            144       -1.04614
            435            435        143.104            145       -1.06664
            438            438        144.059            146       -1.09218
            441            441         145.01            147       -1.12044
            444            444        145.959            148        -1.1491
            447            447        146.909            149       -1.17775
            450            450        147.863            150       -1.20426
            453            453        148.824            151       -1.22683
            456            456        149.792            152       -1.24525
            459            459        150.767            153        -1.2597
            462            462        151.754            154       -1.26787
            465            465        152.747            155       -1.27239
            468            468        153.753            156       -1.26943
            471            471        154.769            157       -1.26102
            474            474        155.803            158        -1.2426
            477            477        156.852            159       -1.21524
            480            480        157.917            160        -1.1792
            483            483        158.988            161       -1.13949
            486            486        160.059            162        -1.1001
            489            489        161.127            163       -1.06186
            492            492        162.189            164       -1.02738
            495            495        163.246            165      -0.995726
            498            498        164.295            166      -0.968339
            501            501        165.338            167      -0.944733
            504            504        166.374            168      -0.924601
            507            507        167.406            169      -0.906976
            510            510        168.433            170      -0.892378
            513            513        169.456            171      -0.880058
            516            516        170.476            172      -0.868962
            519            519        171.495            173       -0.85902
            522            522         172.51            174        -0.8506
            525            525        173.524            175      -0.843722
            528            528        174.536            176      -0.837191
            531            531        175.548            177      -0.830919
            534            534        176.558            178      -0.825943
            537            537        177.567            179      -0.821539
            540            540        178.575            180       -0.81733
            543            543        179.583            181      -0.813386
            546            546         180.59            182      -0.810347
            549            549        181.596            183      -0.807631
            552            552        182.602            184      -0.804987
            555            555        183.607            185      -0.802778
            558            558        184.612            186      -0.800796
            561            561        185.616            187      -0.799011
            564            564         186.62            188      -0.797639
            567            567        187.623            189      -0.796322
            570            570        188.627            190      -0.795125
            573            573         189.63            191      -0.793927
            576            576        190.632            192      -0.793471
            579            579        191.634            193      -0.793435
            582            582        192.636            194      -0.792758
            585            585        193.638            195      -0.792423
            588            588         194.64            196      -0.791963
            591            591        195.642            197      -0.791885
            594            594         196.65            198      -0.788111
            597            597        197.708            199      -0.755363
            600            600        198.857            200      -0.668864
            603            603        198.084            199       -0.53551
            606            606        197.353            198      -0.377521
            609            609        196.629            197      -0.216622
            612            612        195.897            196     -0.0600447
            615            615        195.143            195       0.083216
            618            618        194.362            194       0.210262
            621            621        193.549            193       0.318644
            624            624        192.703            192       0.408041
            627            627        191.833            191       0.482781
            630            630        190.942            190       0.545321
            633            633        190.029            189       0.595289
            636            636        189.113            188       0.642859
            639            639        188.217            187       0.702528
            642            642         187.33            186       0.767216
            645            645        186.423            185       0.820195
            648            648        185.479            184       0.851592
            651            651          184.5            183       0.862702
            654            654        183.492            182       0.857567
            657            657        182.467            181        0.84227
            660            660        181.438            180       0.824927
            663            663         180.41            179       0.808316
            666            666        179.388            178       0.794995
            669            669        178.377            177        0.78794
            672            672        177.374            176       0.785633
            675            675        176.375            175       0.786002
            678            678        175.376            174       0.785725
            681            681        174.376            173       0.785205
            684            684        173.376            172       0.784419
            687            687        172.376            171       0.783977
            690            690        171.376            170       0.783596
            693            693        170.376            169       0.783175
            696            696        169.377            168       0.782875
            699            699        168.377            167       0.782468
            702            702        167.379            166       0.783044
            705            705        166.382            165       0.784469
            708            708        165.386            164       0.786541
            711            711         164.39            163       0.788144
            714            714        163.394            162       0.790055
            717            717        162.397            161       0.790945
            720            720        161.397            160       0.790703
            723            723        160.394            159       0.788865
            726            726         159.39            158       0.785922
            729            729        158.387            157       0.783758
            732            732        157.383            156        0.78135
            735            735         156.38            155       0.779254
            738            738        155.379            154       0.778357
            741            741        154.381            153       0.779172
            744            744        153.382            152       0.779587
            747            747        152.384            151       0.780188
            750            750        151.384            150       0.779753
            753            753        150.381            149       0.778074
            756            756        149.379            148        0.77654
            759            759        148.378            147       0.775616
            762            762        147.376            146       0.774228
            765            765        146.375            145       0.773338
            768            768        145.375            144       0.773204
            771            771        144.375            143       0.773336
            774            774        143.377            142       0.774103
            777            777        142.379            141       0.774657
            780            780        141.379            140       0.774952
            783            783         140.38            139        0.77526
            786            786        139.381            138       0.775439
            789            789        138.381            137       0.775393
            792            792        137.381            136       0.775283
            795            795        136.381            135       0.775145
            798            798        135.381            134       0.774829
            801            801         134.38            133       0.774283
            804            804        133.379            132       0.773725
            807            807        132.377            131       0.772621
            810            810        131.374            130       0.770565
            813            813        130.369            129       0.767663
            816            816        129.363            128       0.764184
            819            819        128.356            127       0.760599
            822            822        127.352            126       0.758476
            825            825        126.351            125       0.757836
            828            828        125.351            124       0.757425
            831            831        124.351            123        0.75787
            834            834        123.354            122       0.759351
            837            837        122.356            121       0.760429
            840            840        121.357            120       0.761176
            843            843        120.358            119       0.761846
            846            846        119.359            118       0.762482
            849            849         118.36            117       0.763188
            852            852        117.361            116       0.763846
            855            855        116.359            115       0.762857
            858            858        115.359            114       0.762771
            861            861        114.358            113       0.762192
            864            864        113.357            112         0.7616
            867            867        112.355            111       0.760904
            870            870        111.354            110        0.76039
            873            873        110.353            109        0.75986
            876            876        109.351            108       0.759179
            879            879        108.351            107       0.759078
            882            882        107.351            106       0.759195
            885            885         106.35            105       0.759179
            888            888        105.349            104       0.758975
            891            891        104.348            103       0.758598
            894            894        103.348            102       0.758465
            897            897        102.347            101         0.7581
            900            900        101.345            100       0.757327
            903            903        100.345             99        0.75592
            906            906        99.3454             98       0.754176
            909            909        98.3457             97       0.752649
            912            912        97.3465             96        0.75131
            915            915        96.3471             95        0.74996
            918            918        95.3477             94       0.748577
            921            921        94.3498             93       0.748021
            924            924        93.3529             92       0.748036
            927            927        92.3572             91       0.748707
            930            930        91.3617             90       0.749516
            933            933        90.3652             89       0.749723
            936            936        89.3685             88       0.749894
            939            939         88.372             87       0.750111
            942            942        87.3745             86       0.749809
            945            945         86.377             85       0.749515
            948            948        85.3792             84       0.749043
            951            951        84.3815             83       0.748627
            954            954        83.3833             82       0.747946
            957            957        82.3852             81       0.747339
            960            960        81.3871             80       0.746751
            963            963         80.389             79       0.746108
            966            966        79.3907             78       0.745431
            969            969        78.3924             77       0.744716
            972            972         77.394             76       0.743936
            975            975        76.3957             75       0.743278
            978            978        75.3949             74       0.741243
            981            981        74.3957             73       0.740072
            984            984        73.3967             72       0.739011
            987            987        72.3977             71       0.737986
            990            990        71.3993             70        0.73728
            993            993        70.4009             69       0.736539
            996            996        69.4025             68       0.735853
            999            999         68.406             67       0.736133
           1002           1002        67.4121             66       0.737817
           1005           1005        66.4169             65       0.738759
           1008           1008         65.422             64       0.739904
           1011           1011        64.4256             63       0.740248
           1014           1014        63.4272             62       0.739505
           1017           1017        62.4263             61        0.73755
           1020           1020        61.4239             60        0.73479
           1023           1023        60.4209             59       0.731727
           1026           1026        59.4186             58       0.729068
           1029           1029         58.416             57        0.72626
           1032           1032        57.4136             56       0.723576
           1035           1035        56.4107             55       0.720657
           1038           1038        55.4057             54       0.716649
           1041           1041        54.3975             53       0.711028
           1044           1044        53.3866             52       0.704104
           1047           1047        52.3747             51       0.696638
           1050           1050        51.3599             50        0.68779
           1053           1053        50.3416             49       0.677198
           1056           1056        49.3224             48       0.666183
           1059           1059        48.3043             47       0.655806
           1062           1062        47.2857             46       0.645152
           1065           1065        46.2676             45        0.63483
           1068           1068        45.2503             44       0.624959
           1071           1071        44.2366             43       0.616956
           1074           1074        43.2266             42       0.610745
           1077           1077        42.2186             41       0.605613
           1080           1080        41.2116             40       0.600974
           1083           1083        40.2049             39       0.596517
           1086           1086        39.1989             38       0.592404
           1089           1089        38.1929             37       0.588353
           1092           1092        37.1871             36       0.584367
           1095           1095        36.1811             35       0.580331
           1098           1098        35.1748             34       0.576171
           1101           1101        34.1705             33       0.572977
           1104           1104        33.1677             32       0.570539
           1107           1107        32.1659             31       0.568628
           1110           1110        31.1652             30       0.567217
           1113           1113        30.1636             29       0.565406
           1116           1116        29.1616             28       0.563397
           1119           1119          28.16             27       0.561581
           1122           1122        27.1584             26       0.559783
           1125           1125        26.1549             25       0.557092
           1128           1128        25.1512             24       0.554297
           1131           1131        24.1484             23       0.551945
           1134           1134        23.1455             22       0.549592
           1137           1137        22.1425             21       0.547157
           1140           1140        21.1413             20       0.545612
           1143           1143         20.141             19       0.544499
           1146           1146        19.1415             18       0.543768
           1149           1149        18.1423             17       0.543219
           1152           1152        17.1444             16       0.543245
           1155           1155        16.1453             15       0.542752
           1158           1158        15.1461             14       0.542184
           1161           1161        14.1475             13       0.541903
           1164           1164        13.1478             12        0.54111
           1167           1167        12.1465             11       0.539568
           1170           1170        11.1452             10       0.538025
           1173           1173         10.144              9       0.536521
           1176           1176        9.14181              8       0.534606
           1179           1179        8.13883              7       0.532311
           1182           1182          7.136              6       0.530092
           1185           1185         6.1333              5       0.527945
           1188           1188        5.13014              4       0.525594
           1191           1191        4.12745              3       0.523473
           1194           1194        3.12187              2       0.520017
           1197           1197        2.07827              1       0.498985
           1200           1200       0.948249              0       0.438093
           1203           1203        1.75902              1       0.351244
           1206           1206        2.54149              2       0.250994
           1209           1209        3.31492              3       0.146216
           1212           1212        4.09142              4      0.0425175
           1215           1215        4.88296              5     -0.0545222
           1218           1218        5.70176              6      -0.139167
           1221           1221        6.54728              7      -0.211611
           1224           1224        7.42031              8      -0.271416
           1227           1227        8.31307              9      -0.322173
           1230           1230        9.22768             10       -0.36284
           1233           1233        10.1576             11      -0.396433
           1236           1236        11.1031             12      -0.422797
           1239           1239        12.0597             13      -0.444054
           1242           1242        13.0264             14       -0.46056
           1245           1245        13.9987             15      -0.474474
           1248           1248        14.9785             16      -0.484917
           1251           1251        15.9626             17      -0.493302
           1254           1254        16.9511             18      -0.499689
           1257           1257        17.9411             19      -0.505346
           1260           1260        18.9327             20       -0.51025
           1263           1263        19.9264             21      -0.514147
           1266           1266        20.9226             22      -0.516921
           1269           1269        21.9197             23      -0.519218
           1272           1272        22.9168             24      -0.521571
           1275           1275        23.9152             25      -0.523302
           1278           1278        24.9131             26      -0.525243
           1281           1281        25.9113             27      -0.527058
           1284           1284        26.9098             28      -0.528768
           1287           1287        27.9086             29      -0.530329
           1290           1290        28.9077             30      -0.531743
           1293           1293         29.907             31      -0.533059
           1296           1296        30.9064             32      -0.534331
           1299           1299        31.9061             33      -0.535473
           1302           1302        32.9059             34      -0.536601
           1305           1305        33.9055             35      -0.537791
           1308           1308        34.9053             36      -0.538886
           1311           1311         35.905             37      -0.540049
           1314           1314        36.9047             38      -0.541229
           1317           1317        37.9044             39      -0.542433
           1320           1320         38.904             40      -0.543638
           1323           1323        39.9037             41      -0.544845
           1326           1326        40.9034             42      -0.546047
           1329           1329        41.9029             43      -0.547312
           1332           1332        42.9025             44      -0.548609
           1335           1335        43.9017             45      -0.550038
           1338           1338        44.9009             46      -0.551561
           1341           1341        45.8998             47      -0.553147
           1344           1344        46.8984             48      -0.554976
           1347           1347        47.8965             49      -0.556989
           1350           1350        48.8945             50      -0.559139
           1353           1353        49.8911             51      -0.561943
           1356           1356        50.8872             52      -0.565076
           1359           1359         51.882             53      -0.568811
           1362           1362        52.8764             54      -0.572805
           1365           1365        53.8683             55      -0.578121
           1368           1368        54.8587             56      -0.584172
           1371           1371        55.8469             57      -0.591426
           1374           1374        56.8293             58      -0.601699
           1377           1377        57.8062             59      -0.614779
           1380           1380         58.776             60       -0.63166
           1383           1383        59.7439             61      -0.649546
           1386           1386        60.7125             62      -0.667155
           1389           1389        61.6834             63      -0.683649
           1392           1392        62.6643             64      -0.694979
           1395           1395         63.651             65      -0.703344
           1398           1398        64.6425             66      -0.709266
           1401           1401        65.6375             67      -0.713392
           1404           1404        66.6345             68      -0.716426
           1407           1407        67.6338             69        -0.7183
           1410           1410        68.6345             70      -0.719478
           1413           1413        69.6348             71      -0.720809
           1416           1416        70.6356             72      -0.721923
           1419           1419        71.6363             73      -0.723127
           1422           1422        72.6372             74      -0.724171
           1425           1425        73.6383             75      -0.725178
           1428           1428        74.6395             76      -0.726085
           1431           1431        75.6407             77      -0.727011
           1434           1434         76.642             78      -0.727886
           1437           1437        77.6433             79      -0.728757
           1440           1440        78.6448             80      -0.729551
           1443           1443        79.6464             81      -0.730304
           1446           1446        80.6481             82      -0.730969
           1449           1449        81.6499             83      -0.731606
           1452           1452        82.6519             84      -0.732148
           1455           1455         83.654             85      -0.732624
           1458           1458        84.6562             86      -0.733068
           1461           1461        85.6583             87      -0.733538
           1464           1464        86.6605             88      -0.733993
           1467           1467        87.6626             89      -0.734469
           1470           1470        88.6648             90      -0.734929
           1473           1473         89.667             91      -0.735365
           1476           1476        90.6691             92      -0.735883
           1479           1479        91.6712             93      -0.736412
           1482           1482        92.6733             94      -0.736921
           1485           1485        93.6754             95      -0.737403
           1488           1488        94.6776             96      -0.737917
           1491           1491        95.6798             97      -0.738341
           1494           1494         96.682             98      -0.738851
           1497           1497        97.6845             99      -0.739161
           1500           1500        98.6871            100      -0.739384
           1503           1503        99.6863            101      -0.739599
           1506           1506        100.686            102      -0.739635
           1509           1509        101.686            103      -0.739436
           1512           1512        102.686            104      -0.739328
           1515           1515        103.686            105        -0.7388
           1518           1518        104.687            106      -0.738089
           1521           1521        105.688            107      -0.737316
           1524           1524        106.689            108      -0.736606
           1527           1527        107.691            109      -0.735583
           1530           1530        108.693            110      -0.733998
           1533           1533        109.696            111      -0.732049
           1536           1536        110.699            112      -0.730179
           1539           1539        111.704            113      -0.727585
           1542           1542        112.709            114      -0.724613
           1545           1545        113.714            115      -0.721389
           1548           1548         114.72            116      -0.718147
           1551           1551        115.728            117      -0.713736
           1554           1554        116.736            118       -0.70924
           1557           1557        117.744            119      -0.704606
           1560           1560        118.752            120       -0.69985
           1563           1563        119.762            121      -0.694566
           1566           1566         120.77            122      -0.689628
           1569           1569        121.779            123      -0.684892
           1572           1572        122.787            124      -0.680169
           1575           1575        123.796            125      -0.675268
           1578           1578        124.804            126      -0.670701
           1581           1581        125.811            127      -0.666773
           1584           1584        126.818            128      -0.663143
           1587           1587        127.822            129      -0.660807
           1590           1590        128.824            130      -0.659416
           1593           1593        129.826            131      -0.658342
           1596           1596        130.826            132      -0.658664
           1599           1599        131.824            133      -0.659847
           1602           1602        132.821            134      -0.661809
           1605           1605        133.815            135      -0.665121
           1608           1608        134.808            136      -0.668986
           1611           1611          135.8            137      -0.673497
           1614           1614        136.792            138      -0.678241
           1617           1617        137.782            139      -0.684057
           1620           1620        138.772            140      -0.690126
           1623           1623        139.761            141       -0.69615
           1626           1626         140.75            142      -0.702708
           1629           1629        141.738            143      -0.709274
           1632           1632        142.726            144      -0.716666
           1635           1635        143.711            145      -0.725236
           1638           1638        144.688            146      -0.738032
           1641           1641        145.656            147       -0.75653
           1644           1644         146.61            148      -0.782585
           1647           1647        147.553            149      -0.814823
           1650           1650        148.493            150      -0.849421
           1653           1653        149.432            151      -0.883894
           1656           1656        150.375            152      -0.916584
           1659           1659        151.328            153      -0.943287
           1662           1662          152.3            154      -0.959336
           1665           1665        153.291            155      -0.964769
           1668           1668          154.3            156      -0.960393
           1671           1671        155.324            157      -0.947493
           1674           1674        156.362            158      -0.926329
           1677           1677        157.403            159      -0.903718
           1680           1680        158.443            160      -0.881585
           1683           1683        159.481            161      -0.860472
           1686           1686        160.512            162      -0.843422
           1689           1689        161.537            163      -0.829401
           1692           1692        162.559            164      -0.817513
           1695           1695        163.577            165       -0.80753
           1698           1698        164.591            166      -0.800258
           1701           1701        165.603            167      -0.794236
           1704           1704        166.612            168      -0.789588
           1707           1707        167.618            169      -0.786173
           1710           1710        168.625            170      -0.783147
           1713           1713        169.629            171      -0.781394
           1716           1716        170.632            172      -0.779956
           1719           1719        171.635            173      -0.778937
           1722           1722        172.637            174      -0.778454
           1725           1725        173.638            175      -0.778094
           1728           1728         174.64            176      -0.777744
           1731           1731        175.642            177      -0.777388
           1734           1734        176.643            178       -0.77736
           1737           1737        177.644            179      -0.777401
           1740           1740        178.645            180      -0.777492
           1743           1743        179.646            181      -0.777558
           1746           1746        180.647            182      -0.777708
           1749           1749        181.647            183      -0.777955
           1752           1752        182.648            184      -0.778099
           1755           1755        183.649            185       -0.77827
           1758           1758         184.65            186      -0.778467
           1761           1761        185.651            187      -0.778659
           1764           1764        186.652            188      -0.778846
           1767           1767        187.653            189      -0.779056
           1770           1770        188.654            190      -0.779398
           1773           1773        189.655            191      -0.779612
           1776           1776        190.656            192      -0.779851
           1779           1779        191.656            193      -0.780177
           1782           1782        192.657            194      -0.780565
           1785           1785        193.658            195      -0.780891
           1788           1788        194.659            196      -0.781177
           1791           1791         195.66            197      -0.781461
           1794           1794        196.661            198      -0.781708
           1797           1797        197.662            199      -0.782017
           1799           1799        198.329        199.667      -0.782146

________________________________________________________________________________
Not signed                                                        STARe SW 12.00