File: Polymers lab/2/DSC/!^ESERC bicchiere PLA L=69,5.txt
              0              0      0.0170014              0      0.0115471
              3              3        1.01494              1      0.0101623
              6              6        1.97584              2     -0.0164659
              9              9        2.90182              3     -0.0670155
             12             12        3.81972              4      -0.123253
             15             15        4.73627              5      -0.180609
             18             18        5.65924              6      -0.233754
             21             21        6.59321              7      -0.279525
             24             24        7.54059              8      -0.316216
             27             27        8.50037              9      -0.344487
             30             30        9.46989             10      -0.366124
             33             33         10.448             11      -0.381881
             36             36        11.4334             12      -0.392692
             39             39        12.4234             13      -0.400288
             42             42        13.4168             14      -0.405573
             45             45        14.4139             15      -0.408318
             48             48        15.4121             16      -0.410243
             51             51        16.4131             17      -0.410262
             54             54        17.4139             18      -0.410455
             57             57        18.4146             19      -0.410722
             60             60        19.4152             20      -0.411013
             63             63         20.416             21      -0.411137
             66             66        21.4169             22      -0.411296
             69             69        22.4175             23      -0.411606
             72             72         23.418             24      -0.411977
             75             75        24.4184             25      -0.412412
             78             78        25.4187             26       -0.41298
             81             81        26.4188             27      -0.413631
             84             84        27.4189             28      -0.414332
             87             87        28.4189             29      -0.415078
             90             90        29.4188             30      -0.415961
             93             93        30.4185             31      -0.416927
             96             96        31.4183             32      -0.417856
             99             99         32.418             33      -0.418851
            102            102        33.4177             34       -0.41985
            105            105        34.4174             35      -0.420804
            108            108        35.4171             36      -0.421803
            111            111        36.4169             37       -0.42275
            114            114        37.4167             38      -0.423709
            117            117        38.4165             39      -0.424704
            120            120        39.4162             40       -0.42569
            123            123        40.4161             41      -0.426611
            126            126         41.416             42      -0.427486
            129            129        42.4159             43      -0.428394
            132            132        43.4158             44      -0.429267
            135            135        44.4159             45       -0.43007
            138            138        45.4158             46      -0.430988
            141            141        46.4156             47      -0.431975
            144            144        47.4152             48      -0.433107
            147            147        48.4147             49      -0.434301
            150            150        49.4142             50      -0.435545
            153            153        50.4134             51      -0.437006
            156            156        51.4126             52      -0.438484
            159            159        52.4116             53      -0.440085
            162            162        53.4103             54      -0.441942
            165            165        54.4089             55      -0.443873
            168            168        55.4079             56      -0.445551
            171            171        56.4054             57      -0.448303
            174            174        57.4028             58       -0.45121
            177            177        58.3997             59      -0.454501
            180            180        59.3951             60      -0.458896
            183            183        60.3878             61      -0.465418
            186            186        61.3782             62      -0.473623
            189            189        62.3591             63      -0.489226
            192            192        63.3211             64      -0.519265
            195            195        64.2454             65      -0.578383
            198            198        65.1262             66      -0.671166
            201            201        66.0284             67      -0.747842
            204            204        66.9881             68      -0.780499
            207            207        67.9984             69      -0.774155
            210            210         69.008             70      -0.768383
            213            213        70.0296             71       -0.75326
            216            216        71.0582             72      -0.732597
            219            219        72.0893             73      -0.709902
            222            222        73.1183             74      -0.688763
            225            225        74.1477             75      -0.667267
            228            228        75.1758             76      -0.646622
            231            231        76.2028             77      -0.626801
            234            234        77.2263             78      -0.609648
            237            237        78.2479             79      -0.593908
            240            240        79.2682             80      -0.579115
            243            243        80.2883             81      -0.564458
            246            246        81.3075             82      -0.550484
            249            249        82.3266             83      -0.536415
            252            252        83.3458             84       -0.52229
            255            255        84.3645             85      -0.508471
            258            258        85.3819             86      -0.495687
            261            261        86.3977             87      -0.484071
            264            264        87.4104             88      -0.474934
            267            267        88.4192             89      -0.468889
            270            270        89.4257             90      -0.464675
            273            273        90.4302             91      -0.462103
            276            276        91.4316             92      -0.461973
            279            279        92.4317             93       -0.46295
            282            282        93.4315             94      -0.464169
            285            285        94.4323             95      -0.464634
            288            288        95.4329             96      -0.465201
            291            291        96.4335             97      -0.465749
            294            294        97.4342             98      -0.466258
            297            297        98.4352             99      -0.466549
            300            300         99.436            100      -0.466922
            303            303        100.435            101      -0.467363
            306            306        101.435            102      -0.467834
            309            309        102.433            103      -0.468588
            312            312        103.432            104      -0.469617
            315            315        104.431            105      -0.470606
            318            318        105.429            106       -0.47196
            321            321        106.427            107      -0.473765
            324            324        107.424            108      -0.475796
            327            327        108.421            109      -0.477751
            330            330        109.418            110      -0.480427
            333            333        110.414            111      -0.483371
            336            336         111.41            112      -0.486622
            339            339        112.406            113      -0.490025
            342            342        113.401            114      -0.494086
            345            345        114.395            115       -0.49869
            348            348         115.39            116      -0.503252
            351            351        116.383            117      -0.508491
            354            354        117.377            118      -0.513855
            357            357         118.37            119      -0.519158
            360            360        119.363            120       -0.52549
            363            363        120.354            121      -0.532333
            366            366        121.346            122      -0.538919
            369            369        122.338            123       -0.54563
            372            372         123.33            124      -0.552682
            375            375        124.321            125      -0.559922
            378            378        125.312            126      -0.567288
            381            381        126.303            127      -0.574637
            384            384        127.293            128      -0.582914
            387            387        128.283            129      -0.591404
            390            390        129.272            130      -0.600132
            393            393        130.262            131      -0.608928
            396            396         131.25            132      -0.618858
            399            399        132.238            133      -0.628554
            402            402        133.226            134      -0.638195
            405            405        134.215            135      -0.647926
            408            408        135.202            136      -0.658178
            411            411        136.187            137      -0.671249
            414            414        137.167            138      -0.687392
            417            417        138.147            139      -0.704709
            420            420        139.113            140      -0.732441
            423            423        140.036            141      -0.796694
            426            426        140.959            142      -0.860238
            429            429        141.905            143      -0.904807
            432            432        142.865            144      -0.938787
            435            435         143.81            145      -0.984146
            438            438        144.743            146       -1.03998
            441            441        145.678            147       -1.09359
            444            444        146.624            148       -1.13929
            447            447        147.582            149       -1.17425
            450            450        148.555            150       -1.19678
            453            453        149.551            151       -1.20108
            456            456        150.573            152       -1.18279
            459            459        151.631            153       -1.13537
            462            462        152.713            154       -1.06776
            465            465        153.805            155      -0.992222
            468            468        154.893            156      -0.919084
            471            471        155.968            157      -0.857576
            474            474        157.027            158      -0.808848
            477            477        158.074            159      -0.770464
            480            480         159.11            160      -0.740325
            483            483        160.139            161      -0.717189
            486            486        161.159            162      -0.700404
            489            489        162.175            163      -0.687226
            492            492        163.189            164       -0.67671
            495            495        164.199            165      -0.668502
            498            498        165.206            166      -0.662861
            501            501        166.212            167      -0.658248
            504            504        167.217            168      -0.654223
            507            507         168.22            169      -0.652136
            510            510        169.223            170      -0.650565
            513            513        170.225            171      -0.649392
            516            516        171.227            172      -0.648387
            519            519        172.228            173      -0.647908
            522            522        173.229            174      -0.647386
            525            525         174.23            175      -0.646904
            528            528        175.231            176      -0.646693
            531            531        176.232            177       -0.64653
            534            534        177.232            178      -0.646369
            537            537        178.233            179      -0.646303
            540            540        179.234            180      -0.646372
            543            543        180.234            181      -0.646453
            546            546        181.235            182      -0.646605
            549            549        182.235            183      -0.646767
            552            552        183.236            184      -0.646934
            555            555        184.236            185      -0.647138
            558            558        185.237            186      -0.647173
            561            561        186.237            187      -0.647282
            564            564        187.238            188      -0.647443
            567            567        188.238            189      -0.647616
            570            570        189.239            190      -0.647823
            573            573        190.239            191       -0.64801
            576            576         191.24            192      -0.648291
            579            579         192.24            193      -0.648483
            582            582        193.241            194      -0.648588
            585            585        194.242            195      -0.648702
            588            588        195.242            196      -0.648714
            591            591        196.243            197      -0.648689
            594            594        197.249            198      -0.644384
            597            597        198.296            199      -0.604751
            600            600          199.4            200      -0.516467
            603            603         198.55            199      -0.386425
            606            606        197.716            198      -0.244061
            609            609         196.88            197      -0.102552
            612            612        196.036            196      0.0308744
            615            615        195.172            195       0.147153
            618            618         194.29            194       0.247574
            621            621        193.389            193       0.331711
            624            624        192.485            192         0.4138
            627            627          191.6            191       0.511317
            630            630        190.713            190       0.607104
            633            633        189.803            189       0.683134
            636            636         188.86            188        0.73028
            639            639        187.885            187       0.750809
            642            642        186.885            186       0.750401
            645            645         185.87            185       0.736899
            648            648        184.845            184       0.715428
            651            651        183.821            183       0.693866
            654            654        182.797            182       0.673362
            657            657        181.781            181       0.659351
            660            660        180.776            180       0.654612
            663            663        179.777            179       0.654876
            666            666        178.783            178       0.659186
            669            669         177.79            177       0.664601
            672            672        176.795            176       0.668599
            675            675        175.801            175       0.673136
            678            678        174.806            174       0.676284
            681            681        173.808            173       0.678121
            684            684        172.811            172       0.679581
            687            687        171.811            171       0.679518
            690            690        170.811            170       0.678876
            693            693         169.81            169       0.677668
            696            696        168.809            168       0.676517
            699            699        167.807            167       0.674272
            702            702        166.806            166       0.672609
            705            705        165.804            165       0.670883
            708            708        164.802            164       0.668838
            711            711        163.801            163       0.667516
            714            714        162.803            162       0.668929
            717            717        161.806            161       0.671338
            720            720        160.809            160       0.672844
            723            723        159.811            159       0.674426
            726            726        158.813            158       0.675714
            729            729        157.814            157       0.676548
            732            732        156.813            156       0.675482
            735            735        155.811            155       0.673516
            738            738        154.809            154       0.671361
            741            741        153.808            153       0.669816
            744            744        152.806            152        0.66847
            747            747        151.805            151       0.666937
            750            750        150.803            150       0.665548
            753            753        149.802            149       0.664021
            756            756          148.8            148       0.662421
            759            759        147.798            147       0.660653
            762            762        146.797            146       0.659035
            765            765        145.795            145       0.657728
            768            768        144.793            144       0.656003
            771            771        143.792            143       0.654407
            774            774        142.791            142       0.653904
            777            777        141.793            141       0.654874
            780            780        140.794            140       0.655715
            783            783        139.794            139       0.655999
            786            786        138.795            138       0.656246
            789            789        137.795            137       0.656557
            792            792        136.796            136       0.656693
            795            795        135.796            135       0.656903
            798            798        134.796            134       0.656722
            801            801        133.796            133       0.656522
            804            804        132.794            132        0.65478
            807            807        131.791            131       0.651988
            810            810        130.788            130       0.649973
            813            813        129.785            129       0.647457
            816            816        128.784            128       0.646295
            819            819        127.784            127       0.646111
            822            822        126.785            126       0.646846
            825            825        125.785            125       0.646955
            828            828        124.785            124       0.646979
            831            831        123.785            123       0.647026
            834            834        122.785            122        0.64712
            837            837        121.785            121       0.647097
            840            840        120.785            120       0.646884
            843            843        119.784            119       0.646509
            846            846        118.783            118       0.646044
            849            849        117.783            117       0.645653
            852            852        116.782            116       0.645023
            855            855        115.781            115       0.644411
            858            858         114.78            114       0.643668
            861            861        113.779            113        0.64278
            864            864        112.778            112       0.641696
            867            867        111.776            111       0.640509
            870            870        110.774            110       0.639226
            873            873        109.773            109       0.637994
            876            876        108.771            108       0.636925
            879            879         107.77            107        0.63596
            882            882        106.769            106       0.635362
            885            885        105.768            105       0.634792
            888            888        104.767            104       0.634117
            891            891        103.766            103       0.633427
            894            894        102.767            102       0.634731
            897            897        101.769            101       0.636246
            900            900        100.769            100       0.636828
            903            903        99.7723             99       0.637887
            906            906         98.774             98       0.637861
            909            909        97.7752             97       0.637348
            912            912        96.7761             96       0.636613
            915            915        95.7768             95       0.635765
            918            918        94.7775             94       0.634866
            921            921        93.7782             93       0.633955
            924            924        92.7788             92       0.633001
            927            927        91.7793             91       0.632012
            930            930          90.78             90       0.631131
            933            933        89.7806             89       0.630215
            936            936        88.7812             88       0.629302
            939            939        87.7818             87        0.62839
            942            942        86.7824             86       0.627431
            945            945        85.7829             85       0.626456
            948            948        84.7834             84       0.625481
            951            951         83.784             83       0.624541
            954            954        82.7846             82       0.623626
            957            957        81.7854             81       0.622915
            960            960        80.7864             80       0.622374
            963            963         79.787             79       0.621454
            966            966        78.7877             78       0.620686
            969            969        77.7908             77       0.621787
            972            972        76.7927             76       0.621921
            975            975        75.7946             75       0.622044
            978            978        74.7962             74       0.621947
            981            981        73.7977             73       0.621855
            984            984        72.7989             72        0.62143
            987            987           71.8             71       0.621006
            990            990        70.8013             70        0.62064
            993            993        69.8024             69       0.620221
            996            996        68.8038             68       0.619998
            999            999        67.8048             67       0.619466
           1002           1002        66.8067             66       0.619642
           1005           1005        65.8099             65       0.620816
           1008           1008        64.8121             64       0.621173
           1011           1011        63.8144             63        0.62168
           1014           1014        62.8166             62       0.622038
           1017           1017        61.8173             61       0.621324
           1020           1020        60.8178             60       0.620388
           1023           1023        59.8162             59       0.617891
           1026           1026        58.8134             58       0.614555
           1029           1029        57.8093             57       0.610228
           1032           1032        56.8045             56       0.605387
           1035           1035        55.7981             55        0.59935
           1038           1038          54.79             54       0.592068
           1041           1041        53.7792             53       0.582781
           1044           1044        52.7665             52       0.572165
           1047           1047        51.7526             51       0.560693
           1050           1050        50.7398             50        0.55007
           1053           1053         49.727             49       0.539505
           1056           1056        48.7139             48       0.528699
           1059           1059        47.7013             47       0.518342
           1062           1062        46.6909             46       0.509713
           1065           1065        45.6815             45       0.501769
           1068           1068        44.6722             44       0.493954
           1071           1071        43.6663             43       0.488665
           1074           1074        42.6617             42       0.484376
           1077           1077        41.6567             41       0.479797
           1080           1080        40.6519             40        0.47539
           1083           1083        39.6473             39       0.471146
           1086           1086        38.6428             38       0.466928
           1089           1089        37.6389             37       0.463222
           1092           1092        36.6354             36       0.459817
           1095           1095        35.6314             35       0.456063
           1098           1098        34.6291             34       0.453596
           1101           1101        33.6262             33       0.450623
           1104           1104        32.6232             32       0.447641
           1107           1107        31.6206             31       0.444924
           1110           1110        30.6182             30       0.442405
           1113           1113        29.6158             29       0.439884
           1116           1116        28.6139             28       0.437687
           1119           1119        27.6123             27       0.435773
           1122           1122        26.6103             26       0.433552
           1125           1125        25.6098             25       0.432437
           1128           1128        24.6091             24       0.431119
           1131           1131        23.6083             23       0.429805
           1134           1134        22.6074             22       0.428428
           1137           1137        21.6065             21       0.426987
           1140           1140        20.6057             20       0.425688
           1143           1143        19.6049             19       0.424338
           1146           1146         18.604             18       0.423019
           1149           1149        17.6032             17       0.421678
           1152           1152        16.6023             16        0.42033
           1155           1155        15.6013             15       0.418889
           1158           1158        14.6001             14       0.417356
           1161           1161        13.5988             13       0.415688
           1164           1164        12.5973             12       0.413945
           1167           1167         11.596             11       0.412313
           1170           1170        10.5944             10       0.410559
           1173           1173        9.59319              9        0.40899
           1176           1176         8.5921              8       0.407549
           1179           1179         7.5911              7       0.406172
           1182           1182        6.58994              6       0.404692
           1185           1185        5.58891              5       0.403306
           1188           1188        4.58785              4       0.401908
           1191           1191        3.58772              3       0.401152
           1194           1194         2.5849              2       0.398567
           1197           1197        1.54358              1       0.369794
           1200           1200       0.464929              0       0.315772
           1203           1203        1.35751              1       0.243215
           1206           1206        2.23621              2        0.16096
           1209           1209        3.11442              3       0.078097
           1212           1212        3.99395              4    -0.00413293
           1215           1215        4.88187              5     -0.0809013
           1218           1218        5.78998              6      -0.144071
           1221           1221        6.71087              7      -0.198674
           1224           1224        7.64493              8      -0.244398
           1227           1227        8.59424              9      -0.279762
           1230           1230        9.55458             10      -0.307634
           1233           1233        10.5233             11      -0.329802
           1236           1236        11.4985             12      -0.347589
           1239           1239        12.4788             13      -0.361797
           1242           1242        13.4643             14      -0.372564
           1245           1245        14.4538             15      -0.380523
           1248           1248        15.4459             16      -0.386692
           1251           1251        16.4392             17      -0.392026
           1254           1254        17.4352             18      -0.395548
           1257           1257        18.4326             19      -0.398048
           1260           1260        19.4298             20      -0.400763
           1263           1263         20.428             21      -0.402705
           1266           1266        21.4269             22      -0.404245
           1269           1269        22.4255             23      -0.405897
           1272           1272        23.4247             24      -0.407202
           1275           1275         24.424             25      -0.408473
           1278           1278        25.4232             26       -0.40975
           1281           1281        26.4227             27       -0.41085
           1284           1284        27.4223             28      -0.411907
           1287           1287        28.4219             29      -0.412966
           1290           1290        29.4216             30      -0.413935
           1293           1293        30.4214             31      -0.414871
           1296           1296        31.4212             32      -0.415764
           1299           1299        32.4209             33      -0.416704
           1302           1302        33.4208             34      -0.417584
           1305           1305        34.4206             35      -0.418497
           1308           1308        35.4203             36      -0.419516
           1311           1311          36.42             37      -0.420528
           1314           1314        37.4196             38       -0.42163
           1317           1317        38.4192             39      -0.422704
           1320           1320        39.4188             40      -0.423835
           1323           1323        40.4183             41      -0.424956
           1326           1326         41.418             42       -0.42604
           1329           1329        42.4174             43      -0.427312
           1332           1332        43.4167             44      -0.428656
           1335           1335        44.4157             45      -0.430187
           1338           1338        45.4145             46      -0.431916
           1341           1341        46.4129             47      -0.433917
           1344           1344        47.4116             48      -0.435786
           1347           1347        48.4095             49      -0.438216
           1350           1350        49.4069             50      -0.441013
           1353           1353        50.4042             51      -0.443888
           1356           1356           51.4             52      -0.447889
           1359           1359        52.3946             53      -0.452787
           1362           1362        53.3888             54      -0.458054
           1365           1365        54.3816             55      -0.464422
           1368           1368        55.3721             56      -0.472513
           1371           1371        56.3589             57      -0.483422
           1374           1374        57.3414             58      -0.497621
           1377           1377        58.3184             59      -0.515997
           1380           1380        59.2922             60      -0.536941
           1383           1383        60.2663             61      -0.557779
           1386           1386        61.2435             62      -0.576248
           1389           1389        62.2281             63      -0.589225
           1392           1392        63.2201             64      -0.596581
           1395           1395        64.2173             65      -0.599947
           1398           1398        65.2168             66      -0.601569
           1401           1401        66.2167             67      -0.602879
           1404           1404        67.2179             68      -0.603247
           1407           1407        68.2187             69       -0.60391
           1410           1410        69.2193             70      -0.604697
           1413           1413        70.2202             71      -0.605298
           1416           1416        71.2212             72      -0.605805
           1419           1419        72.2221             73      -0.606401
           1422           1422         73.223             74       -0.60696
           1425           1425         74.224             75      -0.607502
           1428           1428         75.225             76       -0.60802
           1431           1431        76.2261             77      -0.608514
           1434           1434         77.227             78      -0.609072
           1437           1437        78.2282             79      -0.609459
           1440           1440        79.2294             80      -0.609846
           1443           1443        80.2305             81      -0.610294
           1446           1446        81.2317             82      -0.610722
           1449           1449        82.2331             83      -0.610967
           1452           1452        83.2344             84      -0.611273
           1455           1455        84.2356             85      -0.611648
           1458           1458        85.2369             86      -0.611936
           1461           1461        86.2384             87      -0.612109
           1464           1464        87.2397             88       -0.61243
           1467           1467        88.2411             89      -0.612708
           1470           1470        89.2425             90      -0.612953
           1473           1473        90.2438             91       -0.61327
           1476           1476         91.245             92      -0.613679
           1479           1479        92.2463             93      -0.614026
           1482           1482        93.2476             94      -0.614392
           1485           1485        94.2487             95      -0.614834
           1488           1488        95.2501             96      -0.615168
           1491           1491        96.2515             97      -0.615416
           1494           1494        97.2529             98      -0.615651
           1497           1497        98.2546             99      -0.615706
           1500           1500        99.2564            100      -0.615628
           1503           1503        100.257            101      -0.615284
           1506           1506        101.257            102      -0.614766
           1509           1509        102.258            103         -0.614
           1512           1512        103.258            104      -0.613232
           1515           1515         104.26            105      -0.612099
           1518           1518        105.261            106      -0.610519
           1521           1521        106.263            107       -0.60887
           1524           1524        107.265            108       -0.60719
           1527           1527        108.268            109      -0.604236
           1530           1530        109.272            110      -0.601238
           1533           1533        110.276            111      -0.598004
           1536           1536        111.279            112      -0.594683
           1539           1539        112.285            113      -0.590158
           1542           1542         113.29            114      -0.585728
           1545           1545        114.295            115      -0.581349
           1548           1548        115.301            116      -0.576851
           1551           1551        116.306            117      -0.572077
           1554           1554        117.312            118      -0.567326
           1557           1557        118.318            119      -0.562693
           1560           1560        119.323            120      -0.558211
           1563           1563        120.328            121      -0.553898
           1566           1566        121.333            122      -0.549664
           1569           1569        122.338            123      -0.545613
           1572           1572        123.343            124      -0.541455
           1575           1575        124.346            125      -0.538977
           1578           1578        125.349            126      -0.536958
           1581           1581         126.35            127      -0.535625
           1584           1584        127.352            128      -0.534492
           1587           1587        128.352            129      -0.534697
           1590           1590         129.35            130      -0.536067
           1593           1593        130.348            131      -0.538108
           1596           1596        131.343            132      -0.541603
           1599           1599        132.338            133      -0.545809
           1602           1602        133.333            134       -0.55004
           1605           1605        134.327            135       -0.55533
           1608           1608         135.32            136      -0.561126
           1611           1611        136.313            137      -0.566985
           1614           1614        137.306            138      -0.572806
           1617           1617        138.299            139      -0.579086
           1620           1620        139.291            140      -0.585752
           1623           1623        140.283            141      -0.592356
           1626           1626        141.274            142      -0.599881
           1629           1629        142.265            143      -0.607493
           1632           1632        143.254            144      -0.616495
           1635           1635        144.236            145      -0.631991
           1638           1638        145.207            146      -0.656061
           1641           1641        146.163            147      -0.692249
           1644           1644        147.114            148      -0.733805
           1647           1647        148.064            149      -0.775081
           1650           1650        149.017            150      -0.814409
           1653           1653        149.977            151      -0.847772
           1656           1656        150.954            152      -0.867519
           1659           1659        151.951            153      -0.869812
           1662           1662         152.97            154      -0.854615
           1665           1665        154.007            155      -0.824169
           1668           1668        155.049            156      -0.789413
           1671           1671         156.09            157      -0.756392
           1674           1674        157.121            158      -0.731054
           1677           1677        158.147            159      -0.709587
           1680           1680        159.167            160      -0.693543
           1683           1683        160.183            161      -0.680518
           1686           1686        161.194            162      -0.671716
           1689           1689        162.203            163       -0.66414
           1692           1692         163.21            164      -0.658775
           1695           1695        164.215            165      -0.655278
           1698           1698        165.219            166      -0.652251
           1701           1701        166.223            167      -0.649354
           1704           1704        167.226            168      -0.647188
           1707           1707        168.227            169      -0.646328
           1710           1710        169.229            170       -0.64544
           1713           1713         170.23            171      -0.644943
           1716           1716        171.231            172      -0.644775
           1719           1719        172.232            173      -0.644495
           1722           1722        173.232            174      -0.644311
           1725           1725        174.233            175      -0.644286
           1728           1728        175.234            176      -0.644386
           1731           1731        176.234            177      -0.644454
           1734           1734        177.234            178      -0.644671
           1737           1737        178.235            179       -0.64482
           1740           1740        179.235            180      -0.644986
           1743           1743        180.236            181      -0.645192
           1746           1746        181.236            182      -0.645393
           1749           1749        182.236            183      -0.645644
           1752           1752        183.237            184      -0.645979
           1755           1755        184.237            185      -0.646384
           1758           1758        185.237            186      -0.646619
           1761           1761        186.238            187       -0.64683
           1764           1764        187.238            188      -0.647108
           1767           1767        188.239            189      -0.647319
           1770           1770        189.239            190      -0.647629
           1773           1773         190.24            191      -0.647879
           1776           1776         191.24            192      -0.648218
           1779           1779         192.24            193      -0.648406
           1782           1782        193.241            194      -0.648651
           1785           1785        194.241            195       -0.64893
           1788           1788        195.242            196      -0.649187
           1791           1791        196.242            197      -0.649441
           1794           1794        197.243            198      -0.649646
           1797           1797        198.244            199      -0.649809
           1799           1799        198.911        199.667       -0.64986

________________________________________________________________________________
Not signed                                                        STARe SW 12.00