File: Polymers lab/2/DSC/!^PME2019G1 PET tq L=71,5.txt
              0              0      0.0173851              0       0.013033
              5              5        1.75931        1.66667      0.0696417
             10             10        3.38695        3.33333      0.0404143
             15             15        4.86808              5     -0.0997204
             20             20        6.38755        6.66667      -0.211581
             25             25        7.94823        8.33333      -0.292738
             30             30        9.54871             10      -0.344026
             35             35        11.1779        11.6667      -0.373675
             40             40        12.8249        13.3333      -0.389794
             45             45        14.4838             15      -0.396953
             50             50        16.1483        16.6667      -0.399742
             55             55        17.8153        18.3333      -0.400698
             60             60        19.4827             20      -0.401312
             65             65        21.1501        21.6667      -0.401935
             70             70        22.8173        23.3333       -0.40268
             75             75         24.484             25      -0.403853
             80             80        26.1504        26.6667      -0.405291
             85             85        27.8165        28.3333      -0.407016
             90             90        29.4826             30        -0.4087
             95             95        31.1486        31.6667      -0.410447
            100            100        32.8147        33.3333       -0.41222
            105            105        34.4805             35      -0.414173
            110            110        36.1464        36.6667      -0.416097
            115            115        37.8123        38.3333      -0.418062
            120            120         39.478             40      -0.420184
            125            125        41.1437        41.6667      -0.422231
            130            130        42.8098        43.3333       -0.42405
            135            135        44.4764             45      -0.425519
            140            140        46.1436        46.6667      -0.426474
            145            145        47.8113        48.3333      -0.427041
            150            150        49.4795             50      -0.427186
            155            155         51.148        51.6667      -0.427046
            160            160        52.8183        53.3333      -0.425484
            165            165        54.4877             55      -0.424608
            170            170        56.1567        56.6667      -0.424121
            175            175        57.8252        58.3333      -0.424075
            180            180         59.493             60      -0.424542
            185            185        61.1601        61.6667      -0.425609
            190            190         62.827        63.3333      -0.426874
            195            195         64.492             65      -0.429783
            200            200        66.1568        66.6667      -0.432826
            205            205        67.8213        68.3333      -0.436222
            210            210        69.4854             70      -0.439919
            215            215        71.1485        71.6667      -0.444564
            220            220        72.8097        73.3333      -0.450827
            225            225        74.4668             75      -0.460718
            230            230        76.1164        76.6667      -0.477221
            235            235        77.7667        78.3333      -0.493172
            240            240        79.4191             80      -0.507403
            245            245        81.0705        81.6667      -0.522624
            250            250        82.7236        83.3333      -0.536515
            255            255        84.3819             85      -0.545939
            260            260         86.044        86.6667      -0.552007
            265            265        87.7089        88.3333      -0.555642
            270            270        89.3751             90       -0.55811
            275            275        91.0422        91.6667      -0.559869
            280            280        92.7106        93.3333      -0.560371
            285            285         94.379             95      -0.560957
            290            290        96.0475        96.6667      -0.561497
            295            295         97.716        98.3333      -0.561966
            300            300        99.3846            100      -0.562408
            305            305        101.051        101.667      -0.562742
            310            310        102.717        103.333      -0.562774
            315            315        104.383            105      -0.562524
            320            320         106.05        106.667      -0.562096
            325            325        107.717        108.333      -0.561593
            330            330        109.384            110      -0.561126
            335            335        111.051        111.667      -0.560812
            340            340        112.717        113.333      -0.560908
            345            345        114.384            115      -0.560851
            350            350        116.051        116.667      -0.560641
            355            355        117.718        118.333      -0.559843
            360            360        119.386            120      -0.558604
            365            365        121.055        121.667      -0.557073
            370            370        122.723        123.333      -0.554961
            375            375        124.393            125      -0.552572
            380            380        126.063        126.667      -0.549534
            385            385        127.733        128.333      -0.546513
            390            390        129.405            130      -0.541728
            395            395        131.077        131.667      -0.536405
            400            400        132.756        133.333       -0.52601
            405            405        134.445            135       -0.50516
            410            410        136.166        136.667      -0.456301
            415            415        137.952        138.333      -0.347365
            420            420        139.811            140      -0.172573
            425            425        141.655        141.667     -0.0107889
            430            430        143.374        143.333      0.0367809
            435            435         144.99            145    -0.00932907
            440            440        146.556        146.667       -0.10123
            445            445        148.122        148.333      -0.193345
            450            450        149.697            150      -0.276629
            455            455        151.291        151.667      -0.343701
            460            460        152.899        153.333      -0.397475
            465            465        154.523            155      -0.437213
            470            470        156.155        156.667      -0.469421
            475            475        157.796        158.333      -0.492662
            480            480        159.444            160       -0.51024
            485            485        161.097        161.667        -0.5235
            490            490        162.754        163.333      -0.533468
            495            495        164.413            165      -0.540606
            500            500        166.073        166.667       -0.54725
            505            505        167.735        168.333      -0.552212
            510            510        169.399            170      -0.555603
            515            515        171.062        171.667      -0.559443
            520            520        172.726        173.333      -0.562707
            525            525         174.39            175       -0.56557
            530            530        176.055        176.667      -0.568237
            535            535         177.72        178.333      -0.570608
            540            540        179.385            180      -0.572961
            545            545        181.049        181.667       -0.57551
            550            550        182.715        183.333      -0.577675
            555            555         184.38            185      -0.579819
            560            560        186.046        186.667      -0.581623
            565            565        187.711        188.333       -0.58349
            570            570        189.377            190      -0.585512
            575            575        191.042        191.667      -0.587758
            580            580        192.707        193.333      -0.590131
            585            585        194.372            195      -0.592796
            590            590        196.037        196.667        -0.5955
            595            595        197.702        198.333      -0.598361
            600            600        199.367            200      -0.601411
            605            605        201.031        201.667      -0.604715
            610            610        202.695        203.333      -0.608057
            615            615         204.36            205      -0.611234
            620            620        206.025        206.667      -0.614205
            625            625         207.69        208.333      -0.616867
            630            630        209.355            210      -0.619738
            635            635         211.02        211.667      -0.622852
            640            640        212.685        213.333      -0.626337
            645            645        214.349            215      -0.629864
            650            650        216.013        216.667       -0.63376
            655            655        217.677        218.333      -0.637877
            660            660        219.341            220      -0.642524
            665            665        221.004        221.667      -0.647649
            670            670        222.667        223.333      -0.653196
            675            675        224.328            225       -0.66014
            680            680        225.986        226.667      -0.669977
            685            685        227.643        228.333      -0.681183
            690            690        229.298            230      -0.695145
            695            695        230.952        231.667      -0.709909
            700            700        232.602        233.333      -0.728337
            705            705        234.248            235      -0.750784
            710            710         235.89        236.667      -0.777499
            715            715        237.529        238.333      -0.808562
            720            720        239.163            240      -0.843724
            725            725        240.793        241.667      -0.883161
            730            730        242.419        243.333      -0.926752
            735            735        244.042            245      -0.974917
            740            740        245.659        246.667       -1.02846
            745            745        247.273        248.333        -1.0856
            750            750        248.889            250        -1.1422
            755            755        250.513        251.667       -1.19011
            760            760        252.171        253.333       -1.20289
            765            765        253.876            255       -1.16694
            770            770        255.632        256.667       -1.07792
            775            775        257.409        258.333       -0.96688
            780            780        259.176            260      -0.865153
            785            785        260.917        261.667      -0.789759
            790            790        262.636        263.333      -0.737494
            795            795        264.338            265      -0.703611
            800            800        266.028        266.667      -0.680853
            805            805         267.71        268.333      -0.667579
            810            810        269.387            270      -0.659194
            815            815        271.061        271.667      -0.653613
            820            820        272.733        273.333      -0.651535
            825            825        274.403            275      -0.650218
            830            830        276.073        276.667      -0.649001
            835            835        277.743        278.333      -0.648169
            840            840        279.413            280      -0.647436
            845            845        281.083        281.667      -0.646868
            850            850        282.753        283.333      -0.646467
            855            855        284.423            285      -0.646243
            860            860        286.092        286.667      -0.646258
            865            865        287.762        288.333      -0.646337
            870            870        289.431            290      -0.646457
            875            875          291.1        291.667      -0.646606
            880            880        292.769        293.333      -0.647024
            885            885        294.439            295      -0.647251
            890            890        296.108        296.667      -0.647664
            895            895        297.766        298.333      -0.661206
            900            900        299.483            300      -0.605647
            905            905        298.012        298.333      -0.374311
            910            910        296.573        296.667      -0.108814
            915            915        295.113            295       0.130703
            920            920        293.607        293.333       0.314513
            925            925        292.059        291.667       0.447593
            930            930        290.476            290       0.540637
            935            935        288.865        288.333       0.601287
            940            940        287.236        286.667       0.640772
            945            945        285.595            285       0.665881
            950            950        283.944        283.333       0.680023
            955            955        282.288        281.667       0.689304
            960            960        280.627            280       0.691982
            965            965        278.964        278.333       0.692934
            970            970        277.298        276.667       0.690826
            975            975         275.63            275       0.686024
            980            980        273.961        273.333       0.680264
            985            985        272.291        271.667        0.67414
            990            990        270.619            270       0.665436
            995            995        268.942        268.333       0.651663
           1000           1000        267.266        266.667       0.639326
           1005           1005        265.593            265       0.629574
           1010           1010         263.92        263.333        0.62116
           1015           1015        262.248        261.667        0.61252
           1020           1020        260.575            260       0.604267
           1025           1025        258.903        258.333       0.595724
           1030           1030         257.23        256.667       0.587292
           1035           1035        255.557            255       0.578887
           1040           1040        253.885        253.333       0.570557
           1045           1045        252.212        251.667       0.562396
           1050           1050         250.54            250       0.554471
           1055           1055        248.867        248.333       0.546647
           1060           1060        247.195        246.667       0.539133
           1065           1065        245.523            245       0.531743
           1070           1070        243.851        243.333       0.524538
           1075           1075        242.179        241.667       0.517524
           1080           1080        240.507            240       0.510698
           1085           1085        238.835        238.333       0.504194
           1090           1090        237.164        236.667       0.497759
           1095           1095        235.492            235       0.491486
           1100           1100        233.821        233.333       0.485445
           1105           1105         232.15        231.667       0.479596
           1110           1110        230.479            230       0.473872
           1115           1115        228.808        228.333       0.468284
           1120           1120        227.137        226.667       0.462875
           1125           1125        225.466            225       0.457486
           1130           1130        223.795        223.333       0.452293
           1135           1135        222.124        221.667       0.447188
           1140           1140        220.454            220       0.442247
           1145           1145        218.783        218.333       0.437345
           1150           1150        217.112        216.667       0.432433
           1155           1155        215.442            215       0.427602
           1160           1160        213.771        213.333       0.422849
           1165           1165        212.101        211.667       0.418231
           1170           1170         210.43            210        0.41369
           1175           1175         208.76        208.333       0.409222
           1180           1180         207.09        206.667       0.404928
           1185           1185         205.42            205       0.400677
           1190           1190        203.749        203.333       0.396427
           1195           1195        202.079        201.667       0.392268
           1200           1200        200.409            200       0.388189
           1205           1205        198.739        198.333        0.38435
           1210           1210        197.069        196.667       0.380467
           1215           1215        195.399            195       0.376729
           1220           1220        193.729        193.333       0.372964
           1225           1225        192.059        191.667       0.369329
           1230           1230        190.389            190       0.365689
           1235           1235        188.719        188.333       0.362063
           1240           1240        187.049        186.667       0.358421
           1245           1245         185.38            185       0.354885
           1250           1250         183.71        183.333       0.351457
           1255           1255         182.04        181.667       0.348101
           1260           1260         180.37            180       0.344864
           1265           1265        178.701        178.333       0.341632
           1270           1270        177.031        176.667       0.338516
           1275           1275        175.362            175       0.335421
           1280           1280        173.692        173.333       0.332346
           1285           1285        172.023        171.667       0.329352
           1290           1290        170.353            170       0.326463
           1295           1295        168.684        168.333       0.323645
           1300           1300        167.015        166.667       0.320943
           1305           1305        165.345            165        0.31822
           1310           1310        163.676        163.333       0.315661
           1315           1315        162.007        161.667       0.313139
           1320           1320        160.338            160       0.310756
           1325           1325         158.67        158.333       0.308599
           1330           1330        157.001        156.667       0.306573
           1335           1335        155.333            155       0.304778
           1340           1340        153.664        153.333       0.303117
           1345           1345        151.996        151.667       0.301761
           1350           1350        150.329            150        0.30082
           1355           1355        148.662        148.333       0.300359
           1360           1360        146.996        146.667       0.300536
           1365           1365         145.33            145       0.301065
           1370           1370        143.665        143.333       0.302796
           1375           1375        142.002        141.667       0.305504
           1380           1380         140.34            140       0.310129
           1385           1385        138.682        138.333       0.317898
           1390           1390        137.025        136.667       0.326244
           1395           1395        135.372            135       0.339245
           1400           1400        133.724        133.333       0.355408
           1405           1405        132.077        131.667       0.373971
           1410           1410        130.436            130       0.397123
           1415           1415        128.799        128.333       0.423429
           1420           1420        127.165        126.667       0.453309
           1425           1425        125.535            125       0.486488
           1430           1430        123.903        123.333       0.518639
           1435           1435        122.272        121.667       0.551052
           1440           1440         120.64            120       0.582605
           1445           1445        119.001        118.333       0.608062
           1450           1450        117.356        116.667       0.627727
           1455           1455        115.701            115       0.638639
           1460           1460        114.037        113.333        0.64051
           1465           1465        112.359        111.667        0.63067
           1470           1470        110.673            110       0.613124
           1475           1475        108.977        108.333       0.586848
           1480           1480        107.275        106.667       0.555098
           1485           1485        105.569            105       0.519323
           1490           1490        103.865        103.333       0.485048
           1495           1495         102.16        101.667       0.450564
           1500           1500        100.457            100       0.417622
           1505           1505        98.7602        98.3333       0.388554
           1510           1510        97.0677        96.6667       0.363625
           1515           1515        95.3771             95       0.340674
           1520           1520        93.6912        93.3333        0.32204
           1525           1525        92.0096        91.6667       0.307432
           1530           1530        90.3302             90       0.294943
           1535           1535        88.6533        88.3333       0.284662
           1540           1540        86.9772        86.6667       0.275273
           1545           1545        85.3029             85       0.267517
           1550           1550        83.6304        83.3333       0.261427
           1555           1555        81.9581        81.6667       0.255473
           1560           1560        80.2863             80       0.250122
           1565           1565        78.6159        78.3333       0.245888
           1570           1570        76.9458        76.6667        0.24206
           1575           1575        75.2761             75       0.238592
           1580           1580        73.6068        73.3333        0.23543
           1585           1585        71.9376        71.6667       0.232473
           1590           1590        70.2688             70       0.229821
           1595           1595        68.6002        68.3333       0.227394
           1600           1600        66.9319        66.6667       0.225182
           1605           1605        65.2638             65       0.223154
           1610           1610        63.5957        63.3333        0.22123
           1615           1615        61.9279        61.6667       0.219465
           1620           1620          60.26             60       0.217714
           1625           1625        58.5923        58.3333       0.216094
           1630           1630        56.9246        56.6667       0.214482
           1635           1635        55.2569             55       0.212964
           1640           1640        53.5895        53.3333       0.211594
           1645           1645        51.9219        51.6667       0.210163
           1650           1650        50.2546             50       0.208953
           1655           1655        48.5873        48.3333       0.207716
           1660           1660          46.92        46.6667       0.206568
           1665           1665        45.2526             45       0.205309
           1670           1670        43.5854        43.3333       0.204169
           1675           1675        41.9182        41.6667       0.203097
           1680           1680        40.2511             40       0.202089
           1685           1685         38.584        38.3333       0.201084
           1690           1690        36.9168        36.6667       0.200029
           1695           1695        35.2495             35       0.198941
           1700           1700        33.5823        33.3333       0.197861
           1705           1705        31.9151        31.6667        0.19683
           1710           1710        30.2479             30       0.195852
           1715           1715         28.581        28.3333       0.195007
           1720           1720        26.9139        26.6667       0.194123
           1725           1725        25.2469             25       0.193268
           1730           1730        23.5799        23.3333       0.192424
           1735           1735         21.913        21.6667       0.191685
           1740           1740        20.2461             20       0.190871
           1745           1745        18.5793        18.3333        0.19023
           1750           1750        16.9123        16.6667       0.189411
           1755           1755        15.2455             15       0.188764
           1760           1760        13.5785        13.3333       0.187969
           1765           1765        11.9117        11.6667       0.187303
           1770           1770        10.2447             10       0.186542
           1775           1775        8.57789        8.33333       0.185903
           1780           1780        6.91092        6.66667       0.185152
           1785           1785        5.24408              5       0.184498
           1790           1790        3.57697        3.33333       0.183655
           1795           1795        1.90992        1.66667       0.182857
           1800           1800        0.24217              0       0.181546
           1805           1805         1.9066        1.66667       0.180365
           1810           1810        3.57052        3.33333       0.178791
           1815           1815        5.23463              5        0.17736
           1820           1820        6.89851        6.66667       0.175743
           1825           1825        8.56224        8.33333        0.17401
           1830           1830        10.2262             10       0.172472
           1835           1835        11.8901        11.6667       0.170785
           1840           1840        13.5541        13.3333        0.16928
           1845           1845        15.2179             15       0.167573
           1850           1850         16.882        16.6667       0.166085
           1855           1855        18.5461        18.3333       0.164589
           1860           1860        20.2104             20       0.163188
           1865           1865        21.8748        21.6667       0.161901
           1870           1870        23.5393        23.3333       0.160706
           1875           1875        25.2043             25       0.159922
           1880           1880        26.8696        26.6667       0.159304
           1885           1885        28.5353        28.3333       0.159034
           1890           1890        30.2013             30       0.159002
           1895           1895        31.8675        31.6667       0.159117
           1900           1900        33.5332        33.3333       0.158822
           1905           1905        35.1982             35       0.158011
           1910           1910        36.8626        36.6667       0.156698
           1915           1915        38.5264        38.3333       0.154865
           1920           1920          40.19             40       0.152918
           1925           1925        41.8538        41.6667       0.151123
           1930           1930        43.5177        43.3333       0.149315
           1935           1935        45.1815             45        0.14749
           1940           1940        46.8453        46.6667       0.145677
           1945           1945        48.5093        48.3333       0.143925
           1950           1950        50.1735             50       0.142375
           1955           1955        51.8378        51.6667       0.140917
           1960           1960        53.5023        53.3333       0.139586
           1965           1965        55.1669             55       0.138341
           1970           1970        56.8316        56.6667       0.137215
           1975           1975        58.4967        58.3333       0.136344
           1980           1980        60.1621             60       0.135726
           1985           1985        61.8278        61.6667        0.13543
           1990           1990        63.4937        63.3333       0.135246
           1995           1995        65.1599             65       0.135244
           2000           2000        66.8256        66.6667       0.134926
           2005           2005        68.4909        68.3333       0.134255
           2010           2010        70.1558             70       0.133186
           2015           2015        71.8202        71.6667       0.131764
           2020           2020        73.4848        73.3333       0.130423
           2025           2025        75.1493             75       0.129027
           2030           2030         76.814        76.6667        0.12774
           2035           2035        78.4786        78.3333       0.126399
           2040           2040        80.1432             80       0.125124
           2045           2045        81.8081        81.6667       0.124006
           2050           2050        83.4731        83.3333       0.123027
           2055           2055        85.1382             85       0.122093
           2060           2060        86.8034        86.6667       0.121231
           2065           2065        88.4684        88.3333       0.120222
           2070           2070        90.1336             90       0.119291
           2075           2075        91.7988        91.6667       0.118418
           2080           2080        93.4639        93.3333       0.117495
           2085           2085        95.1292             95       0.116757
           2090           2090        96.7945        96.6667       0.115937
           2095           2095          98.46        98.3333       0.115274
           2100           2100        100.126            100       0.114756
           2105           2105        101.792        101.667       0.114138
           2110           2110        103.458        103.333       0.113489
           2115           2115        105.124            105        0.11285
           2120           2120         106.79        106.667       0.112277
           2125           2125        108.456        108.333       0.111604
           2130           2130        110.122            110       0.110892
           2135           2135        111.788        111.667       0.110315
           2140           2140        113.454        113.333       0.110055
           2145           2145        115.121            115       0.109937
           2150           2150        116.788        116.667       0.110741
           2155           2155        118.442        118.333      0.0989821
           2160           2160        120.044            120      0.0398167
           2165           2165        121.591        121.667     -0.0689712
           2170           2170        123.126        123.333      -0.188621
           2175           2175        124.667            125      -0.303156
           2180           2180        126.228        126.667      -0.398967
           2185           2185        127.814        128.333      -0.472908
           2190           2190        129.419            130      -0.528821
           2195           2195        131.044        131.667      -0.566852
           2200           2200        132.685        133.333      -0.590463
           2205           2205        134.335            135      -0.605849
           2210           2210        135.992        136.667      -0.614818
           2215           2215        137.655        138.333      -0.618119
           2220           2220        139.321            140      -0.618744
           2225           2225        140.988        141.667      -0.618656
           2230           2230        142.657        143.333      -0.616916
           2235           2235        144.326            145      -0.615341
           2240           2240        145.995        146.667      -0.613359
           2245           2245        147.664        148.333      -0.611583
           2250           2250        149.333            150      -0.609927
           2255           2255        151.001        151.667       -0.60863
           2260           2260         152.67        153.333      -0.607601
           2265           2265        154.338            155      -0.606995
           2270           2270        156.005        156.667      -0.606713
           2275           2275        157.672        158.333      -0.606601
           2280           2280        159.339            160      -0.606915
           2285           2285        161.006        161.667      -0.607616
           2290           2290        162.672        163.333      -0.608401
           2295           2295        164.338            165      -0.609366
           2300           2300        166.005        166.667        -0.6104
           2305           2305        167.671        168.333      -0.611307
           2310           2310        169.336            170       -0.61396
           2315           2315        171.001        171.667      -0.616184
           2320           2320        172.665        173.333      -0.618896
           2325           2325         174.33            175      -0.621582
           2330           2330        175.994        176.667      -0.624291
           2335           2335        177.659        178.333      -0.627172
           2340           2340        179.323            180      -0.630099
           2345           2345        180.988        181.667      -0.632788
           2350           2350        182.653        183.333      -0.635178
           2355           2355        184.319            185      -0.636881
           2360           2360        185.985        186.667      -0.638091
           2365           2365        187.653        188.333      -0.638258
           2370           2370        189.321            190      -0.637857
           2375           2375         190.99        191.667       -0.63714
           2380           2380        192.658        193.333      -0.636351
           2385           2385        194.327            195      -0.635497
           2390           2390        195.995        196.667      -0.635005
           2395           2395        197.663        198.333        -0.6349
           2400           2400        199.331            200      -0.635201
           2405           2405        200.998        201.667      -0.636469
           2410           2410        202.664        203.333      -0.638008
           2415           2415         204.33            205      -0.639988
           2420           2420        205.995        206.667      -0.642401
           2425           2425        207.661        208.333      -0.645174
           2430           2430        209.325            210      -0.648723
           2435           2435        210.989        211.667      -0.653003
           2440           2440        212.652        213.333      -0.657687
           2445           2445        214.314            215      -0.663492
           2450           2450        215.976        216.667      -0.670192
           2455           2455        217.636        218.333      -0.678159
           2460           2460        219.296            220      -0.686305
           2465           2465        220.955        221.667      -0.695276
           2470           2470        222.612        223.333      -0.706252
           2475           2475        224.268            225       -0.71874
           2480           2480        225.923        226.667      -0.732648
           2485           2485        227.574        228.333       -0.74937
           2490           2490        229.223            230      -0.769588
           2495           2495        230.869        231.667      -0.791997
           2500           2500        232.511        233.333      -0.818838
           2505           2505        234.152            235      -0.847035
           2510           2510        235.794        236.667      -0.874141
           2515           2515        237.437        238.333       -0.90097
           2520           2520        239.082            240      -0.925047
           2525           2525        240.729        241.667      -0.948317
           2530           2530        242.372        243.333      -0.974558
           2535           2535        244.011            245       -1.00615
           2540           2540        245.647        246.667       -1.04051
           2545           2545        247.284        248.333       -1.07493
           2550           2550         248.93            250       -1.09941
           2555           2555        250.596        251.667        -1.1044
           2560           2560        252.294        253.333        -1.0758
           2565           2565        254.027            255       -1.01033
           2570           2570        255.784        256.667       -0.91972
           2575           2575        257.538        258.333      -0.831883
           2580           2580        259.271            260      -0.765617
           2585           2585        260.983        261.667      -0.720618
           2590           2590        262.679        263.333      -0.692099
           2595           2595        264.365            265      -0.674139
           2600           2600        266.045        266.667      -0.663157
           2605           2605         267.72        268.333      -0.656532
           2610           2610        269.393            270      -0.652817
           2615           2615        271.064        271.667      -0.650308
           2620           2620        272.734        273.333      -0.649889
           2625           2625        274.404            275      -0.649294
           2630           2630        276.073        276.667      -0.649073
           2635           2635        277.743        278.333      -0.648908
           2640           2640        279.412            280      -0.648861
           2645           2645        281.081        281.667      -0.648893
           2650           2650        282.751        283.333      -0.648998
           2655           2655         284.42            285      -0.649249
           2660           2660        286.089        286.667      -0.649736
           2665           2665        287.758        288.333      -0.650128
           2670           2670        289.427            290       -0.65041
           2675           2675        291.097        291.667      -0.650587
           2680           2680        292.766        293.333      -0.650798
           2685           2685        294.436            295      -0.651045
           2690           2690        296.105        296.667      -0.651134
           2695           2695        297.774        298.333      -0.651437
           2699           2699         299.11        299.667       -0.65162

________________________________________________________________________________
Not signed                                                        STARe SW 12.00