File: Polymers lab/2/DSC/!^PME2019G1 PET tt L=72,3.txt
              0              0       0.025248              0      0.0167193
              5              5        1.84051        1.66667       0.115433
             10             10        3.58809        3.33333        0.16963
             15             15        5.04108              5      0.0274304
             20             20         6.5033        6.66667      -0.109389
             25             25        8.01954        8.33333      -0.210707
             30             30        9.57845             10      -0.283868
             35             35         11.172        11.6667      -0.334085
             40             40        12.7965        13.3333      -0.363605
             45             45        14.4398             15      -0.380487
             50             50        16.0949        16.6667      -0.389506
             55             55        17.7568        18.3333      -0.393915
             60             60        19.4217             20      -0.396293
             65             65         21.088        21.6667      -0.397683
             70             70        22.7544        23.3333       -0.39909
             75             75        24.4204             25      -0.400716
             80             80        26.0865        26.6667      -0.402353
             85             85        27.7522        28.3333      -0.404253
             90             90        29.4179             30      -0.406192
             95             95        31.0836        31.6667      -0.408113
            100            100        32.7491        33.3333      -0.410171
            105            105        34.4147             35      -0.412218
            110            110        36.0804        36.6667      -0.414214
            115            115        37.7459        38.3333      -0.416315
            120            120        39.4117             40      -0.418274
            125            125        41.0775        41.6667      -0.420247
            130            130        42.7438        43.3333      -0.421847
            135            135        44.4105             45      -0.423143
            140            140        46.0782        46.6667        -0.4238
            145            145         47.746        48.3333      -0.424383
            150            150        49.4142             50      -0.424631
            155            155        51.0829        51.6667      -0.424618
            160            160        52.7519        53.3333      -0.424266
            165            165        54.4213             55      -0.423721
            170            170        56.0904        56.6667      -0.423382
            175            175        57.7592        58.3333      -0.423188
            180            180        59.4277             60      -0.423302
            185            185         61.096        61.6667      -0.423549
            190            190        62.7641        63.3333      -0.423929
            195            195        64.4319             65      -0.424578
            200            200        66.0995        66.6667      -0.425312
            205            205        67.7669        68.3333      -0.426286
            210            210        69.4342             70      -0.427278
            215            215        71.1013        71.6667      -0.428449
            220            220        72.7683        73.3333      -0.429771
            225            225        74.4351             75      -0.431169
            230            230        76.1012        76.6667      -0.433166
            235            235         77.767        78.3333      -0.435407
            240            240        79.4321             80      -0.438203
            245            245        81.0952        81.6667      -0.442586
            250            250        82.7586        83.3333      -0.446746
            255            255        84.4219             85      -0.450992
            260            260        86.0855        86.6667      -0.455058
            265            265        87.7492        88.3333       -0.45915
            270            270         89.413             90      -0.463126
            275            275        91.0769        91.6667      -0.467056
            280            280        92.7411        93.3333      -0.470769
            285            285        94.4057             95      -0.474242
            290            290        96.0706        96.6667      -0.477442
            295            295        97.7356        98.3333      -0.480641
            300            300        99.4008            100      -0.483699
            305            305        101.063        101.667       -0.48701
            310            310        102.726        103.333      -0.490116
            315            315        104.388            105       -0.49298
            320            320        106.051        106.667      -0.495737
            325            325        107.714        108.333      -0.498392
            330            330        109.378            110      -0.501045
            335            335        111.041        111.667      -0.503709
            340            340        112.704        113.333      -0.506115
            345            345        114.368            115      -0.508361
            350            350        116.032        116.667      -0.510494
            355            355        117.696        118.333      -0.512406
            360            360         119.36            120      -0.514394
            365            365        121.024        121.667      -0.516226
            370            370        122.689        123.333      -0.518279
            375            375        124.353            125      -0.520242
            380            380        126.017        126.667      -0.522179
            385            385        127.681        128.333      -0.524167
            390            390        129.346            130      -0.525965
            395            395         131.01        131.667      -0.527781
            400            400        132.675        133.333      -0.529488
            405            405         134.34            135      -0.531278
            410            410        136.004        136.667      -0.533191
            415            415        137.669        138.333      -0.535165
            420            420        139.333            140      -0.536967
            425            425        140.998        141.667      -0.538811
            430            430        142.663        143.333      -0.540525
            435            435        144.328            145      -0.542234
            440            440        145.992        146.667      -0.543953
            445            445        147.657        148.333      -0.545638
            450            450        149.322            150      -0.547544
            455            455        150.987        151.667      -0.549182
            460            460        152.652        153.333      -0.550885
            465            465        154.317            155      -0.552462
            470            470        155.982        156.667      -0.554219
            475            475        157.647        158.333      -0.556015
            480            480        159.313            160      -0.557733
            485            485        160.978        161.667      -0.559585
            490            490        162.643        163.333      -0.561295
            495            495        164.308            165      -0.562986
            500            500        165.974        166.667      -0.564514
            505            505        167.639        168.333      -0.566067
            510            510        169.304            170      -0.567731
            515            515         170.97        171.667      -0.569366
            520            520        172.635        173.333      -0.571254
            525            525          174.3            175      -0.573046
            530            530        175.966        176.667      -0.574901
            535            535        177.631        178.333      -0.576644
            540            540        179.296            180      -0.578536
            545            545        180.962        181.667      -0.580439
            550            550        182.627        183.333      -0.582427
            555            555        184.293            185      -0.584307
            560            560        185.958        186.667      -0.586042
            565            565        187.624        188.333      -0.587712
            570            570         189.29            190      -0.589391
            575            575        190.955        191.667      -0.591254
            580            580        192.621        193.333      -0.593318
            585            585        194.286            195       -0.59552
            590            590        195.951        196.667       -0.59776
            595            595        197.616        198.333      -0.600302
            600            600        199.281            200      -0.602878
            605            605        200.946        201.667      -0.605698
            610            610         202.61        203.333      -0.608854
            615            615        204.274            205      -0.612119
            620            620        205.939        206.667      -0.615545
            625            625        207.603        208.333      -0.619135
            630            630        209.266            210       -0.62297
            635            635         210.93        211.667      -0.627174
            640            640        212.593        213.333      -0.631765
            645            645        214.255            215      -0.636634
            650            650        215.917        216.667       -0.64192
            655            655        217.579        218.333      -0.647538
            660            660        219.241            220      -0.653726
            665            665        220.902        221.667      -0.660373
            670            670        222.562        223.333      -0.667558
            675            675        224.222            225      -0.675372
            680            680         225.88        226.667      -0.683955
            685            685        227.538        228.333      -0.693934
            690            690        229.194            230      -0.705387
            695            695        230.848        231.667      -0.717735
            700            700        232.501        233.333      -0.731881
            705            705        234.151            235      -0.748595
            710            710        235.798        236.667      -0.768483
            715            715        237.443        238.333      -0.790427
            720            720        239.082            240      -0.817155
            725            725        240.717        241.667      -0.847897
            730            730        242.347        243.333      -0.883792
            735            735        243.971            245      -0.924899
            740            740        245.588        246.667      -0.972533
            745            745        247.198        248.333       -1.02682
            750            750        248.799            250       -1.09024
            755            755          250.4        251.667       -1.15396
            760            760        252.018        253.333       -1.20207
            765            765        253.679            255       -1.21199
            770            770        255.406        256.667       -1.16067
            775            775        257.189        258.333       -1.05785
            780            780         258.98            260      -0.946092
            785            785        260.753        261.667      -0.850795
            790            790        262.497        263.333      -0.781341
            795            795        264.218            265      -0.733807
            800            800        265.922        266.667      -0.701366
            805            805        267.616        268.333      -0.678876
            810            810          269.3            270      -0.665064
            815            815        270.981        271.667      -0.653581
            820            820        272.655        273.333      -0.649472
            825            825        274.328            275      -0.646521
            830            830            276        276.667      -0.644155
            835            835        277.672        278.333      -0.642277
            840            840        279.343            280       -0.64097
            845            845        281.013        281.667      -0.639956
            850            850        282.684        283.333      -0.638979
            855            855        284.355            285      -0.638207
            860            860        286.025        286.667      -0.637542
            865            865        287.695        288.333      -0.637157
            870            870        289.365            290      -0.636753
            875            875        291.035        291.667      -0.636573
            880            880        292.705        293.333      -0.636381
            885            885        294.375            295      -0.636285
            890            890        296.045        296.667      -0.636495
            895            895        297.682        298.333      -0.670324
            900            900        299.309            300      -0.715154
            905            905         297.82        298.333      -0.528117
            910            910        296.407        296.667      -0.266151
            915            915        294.987            295     -0.0133346
            920            920        293.521        293.333        0.19007
            925            925        292.006        291.667        0.34258
            930            930         290.45            290       0.451483
            935            935        288.863        288.333       0.529046
            940            940        287.255        286.667       0.584459
            945            945        285.628            285       0.621354
            950            950        283.991        283.333       0.647241
            955            955        282.348        281.667       0.667189
            960            960        280.701            280       0.683178
            965            965         279.04        278.333       0.686386
            970            970        277.376        276.667       0.685583
            975            975        275.711            275        0.68425
            980            980        274.046        273.333       0.682526
            985            985         272.38        271.667       0.680373
            990            990        270.715            270       0.679406
            995            995        269.055        268.333       0.682243
           1000           1000        267.392        266.667       0.683305
           1005           1005        265.728            265       0.683258
           1010           1010        264.063        263.333       0.681612
           1015           1015        262.393        261.667       0.676724
           1020           1020        260.726            260        0.67303
           1025           1025        259.057        258.333       0.668798
           1030           1030        257.393        256.667       0.668306
           1035           1035         255.73            255       0.670135
           1040           1040        254.068        253.333       0.671535
           1045           1045        252.398        251.667       0.666085
           1050           1050        250.723            250       0.656254
           1055           1055        249.047        248.333       0.645713
           1060           1060        247.378        246.667        0.64114
           1065           1065        245.719            245       0.646485
           1070           1070        244.062        243.333       0.652699
           1075           1075        242.401        241.667       0.655991
           1080           1080        240.733            240       0.652852
           1085           1085        239.065        238.333       0.649366
           1090           1090        237.398        236.667       0.647064
           1095           1095        235.735            235       0.648747
           1100           1100        234.072        233.333       0.649997
           1105           1105        232.409        231.667       0.651061
           1110           1110         230.74            230       0.647671
           1115           1115        229.072        228.333       0.644052
           1120           1120        227.404        226.667       0.641008
           1125           1125        225.735            225       0.637302
           1130           1130        224.071        223.333       0.638081
           1135           1135        222.409        221.667       0.640329
           1140           1140        220.744            220       0.640333
           1145           1145        219.075        218.333       0.636903
           1150           1150        217.403        216.667       0.631168
           1155           1155        215.734            215       0.627232
           1160           1160        214.071        213.333        0.62886
           1165           1165        212.408        211.667       0.630621
           1170           1170        210.745            210       0.632381
           1175           1175        209.083        208.333       0.635401
           1180           1180        207.413        206.667       0.630605
           1185           1185        205.742            205       0.625658
           1190           1190         204.08        203.333       0.628336
           1195           1195        202.419        201.667       0.631873
           1200           1200        200.758            200       0.635725
           1205           1205        199.091        198.333       0.633931
           1210           1210        197.418        196.667       0.627624
           1215           1215        195.744            195       0.620474
           1220           1220        194.082        193.333       0.623412
           1225           1225        192.423        191.667       0.628501
           1230           1230        190.762            190       0.632093
           1235           1235        189.099        188.333       0.634237
           1240           1240        187.433        186.667         0.6335
           1245           1245        185.766            185       0.632319
           1250           1250        184.097        183.333       0.630141
           1255           1255        182.426        181.667       0.625244
           1260           1260        180.766            180       0.629568
           1265           1265        179.122        178.333       0.647841
           1270           1270        177.483        176.667       0.669256
           1275           1275        175.851            175        0.69673
           1280           1280        174.232        173.333       0.735176
           1285           1285        172.625        171.667        0.78303
           1290           1290        171.031            170       0.841776
           1295           1295        169.445        168.333       0.906079
           1300           1300        167.853        166.667        0.96636
           1305           1305        166.242            165        1.01047
           1310           1310        164.617        163.333        1.04316
           1315           1315         162.98        161.667        1.06671
           1320           1320        161.326            160         1.0762
           1325           1325        159.646        158.333        1.06385
           1330           1330        157.945        156.667        1.03538
           1335           1335        156.225            155       0.991298
           1340           1340          154.5        153.333       0.943914
           1345           1345        152.763        151.667       0.885806
           1350           1350        151.031            150       0.832464
           1355           1355        149.312        148.333       0.790277
           1360           1360        147.599        146.667       0.751939
           1365           1365        145.898            145        0.72397
           1370           1370        144.207        143.333       0.704337
           1375           1375        142.516        141.667       0.684506
           1380           1380        140.826            140        0.66548
           1385           1385         139.14        138.333       0.649538
           1390           1390        137.462        136.667        0.63979
           1395           1395        135.784            135       0.630612
           1400           1400        134.105        133.333       0.620567
           1405           1405        132.427        131.667       0.611022
           1410           1410        130.746            130       0.599867
           1415           1415        129.066        128.333       0.588999
           1420           1420        127.389        126.667       0.580371
           1425           1425        125.719            125       0.577796
           1430           1430        124.049        123.333       0.575336
           1435           1435        122.379        121.667       0.572516
           1440           1440        120.711            120       0.571772
           1445           1445        119.047        118.333        0.57418
           1450           1450        117.377        116.667       0.570826
           1455           1455        115.704            115       0.566528
           1460           1460        114.035        113.333       0.564533
           1465           1465        112.365        111.667        0.56177
           1470           1470        110.695            110       0.559542
           1475           1475        109.026        108.333       0.558146
           1480           1480        107.357        106.667       0.555994
           1485           1485        105.688            105       0.554626
           1490           1490        104.018        103.333       0.552015
           1495           1495        102.346        101.667       0.547845
           1500           1500        100.676            100        0.54607
           1505           1505        99.0105        98.3333         0.5445
           1510           1510        97.3443        96.6667       0.542808
           1515           1515        95.6791             95       0.541885
           1520           1520        94.0102        93.3333       0.538037
           1525           1525         92.342        91.6667       0.534776
           1530           1530         90.674             90       0.531737
           1535           1535        89.0062        88.3333       0.528826
           1540           1540        87.3385        86.6667        0.52605
           1545           1545        85.6705             85       0.523059
           1550           1550        84.0022        83.3333       0.519897
           1555           1555         82.331        81.6667        0.51446
           1560           1560        80.6587             80       0.508224
           1565           1565        78.9838        78.3333       0.500071
           1570           1570        77.3119        76.6667       0.494286
           1575           1575        75.6403             75        0.48874
           1580           1580        73.9689        73.3333       0.483386
           1585           1585        72.2998        71.6667       0.479875
           1590           1590        70.6316             70       0.476972
           1595           1595        68.9623        68.3333       0.473316
           1600           1600        67.2901        66.6667       0.467522
           1605           1605        65.6175             65       0.461507
           1610           1610        63.9454        63.3333       0.455817
           1615           1615         62.273        61.6667       0.450029
           1620           1620        60.6025             60       0.445674
           1625           1625        58.9377        58.3333       0.445538
           1630           1630        57.2755        56.6667       0.447266
           1635           1635        55.6103             55       0.446858
           1640           1640        53.9391        53.3333       0.442073
           1645           1645        52.2697        51.6667       0.438576
           1650           1650        50.6031             50       0.437185
           1655           1655        48.9333        48.3333       0.433503
           1660           1660        47.2609        46.6667       0.427982
           1665           1665        45.5918             45       0.424831
           1670           1670        43.9232        43.3333       0.422101
           1675           1675        42.2544        41.6667       0.419182
           1680           1680        40.5855             40       0.416283
           1685           1685        38.9167        38.3333       0.413467
           1690           1690        37.2524        36.6667       0.413827
           1695           1695        35.5859             35       0.412657
           1700           1700        33.9198        33.3333       0.411735
           1705           1705        32.2537        31.6667        0.41084
           1710           1710         30.587             30       0.409613
           1715           1715        28.9206        28.3333       0.408491
           1720           1720        27.2524        26.6667       0.406207
           1725           1725        25.5806             25       0.401409
           1730           1730        23.9089        23.3333       0.396781
           1735           1735        22.2437        21.6667       0.396545
           1740           1740        20.5796             20       0.397141
           1745           1745        18.9149        18.3333        0.39736
           1750           1750        17.2493        16.6667       0.396873
           1755           1755        15.5735             15       0.389506
           1760           1760        13.8994        13.3333       0.383382
           1765           1765        12.2284        11.6667       0.379379
           1770           1770        10.5658             10       0.380991
           1775           1775        8.90216        8.33333       0.381955
           1780           1780        7.23687        6.66667       0.381798
           1785           1785        5.57091              5       0.381204
           1790           1790        3.90386        3.33333       0.379889
           1795           1795        2.29571        1.66667       0.417697
           1800           1800       0.787424              0       0.521435
           1805           1805        2.38853        1.66667       0.479334
           1810           1810        3.86949        3.33333       0.357008
           1815           1815        5.31172              5       0.208138
           1820           1820        6.76191        6.66667      0.0637712
           1825           1825        8.24352        8.33333      -0.060311
           1830           1830        9.77668             10      -0.150383
           1835           1835        11.3466        11.6667      -0.216116
           1840           1840        12.9432        13.3333      -0.264217
           1845           1845        14.5587             15      -0.299718
           1850           1850        16.1899        16.6667      -0.324804
           1855           1855        17.8319        18.3333      -0.342561
           1860           1860        19.4801             20      -0.356254
           1865           1865        21.1347        21.6667      -0.365595
           1870           1870        22.7928        23.3333      -0.372622
           1875           1875        24.4539             25      -0.377598
           1880           1880        26.1178        26.6667      -0.380605
           1885           1885        27.7809        28.3333      -0.384254
           1890           1890        29.4453             30      -0.387053
           1895           1895        31.1101        31.6667      -0.389521
           1900           1900        32.7758        33.3333      -0.391403
           1905           1905        34.4418             35       -0.39311
           1910           1910         36.108        36.6667      -0.394679
           1915           1915        37.7744        38.3333       -0.39614
           1920           1920        39.4406             40      -0.397683
           1925           1925        41.1069        41.6667      -0.399273
           1930           1930        42.7733        43.3333      -0.400718
           1935           1935        44.4398             45      -0.402171
           1940           1940        46.1063        46.6667      -0.403537
           1945           1945        47.7727        48.3333      -0.405093
           1950           1950        49.4391             50      -0.406581
           1955           1955        51.1056        51.6667      -0.408087
           1960           1960        52.7721        53.3333      -0.409574
           1965           1965        54.4385             55      -0.411112
           1970           1970        56.1048        56.6667      -0.412758
           1975           1975         57.771        58.3333      -0.414507
           1980           1980        59.4371             60      -0.416318
           1985           1985        61.1033        61.6667      -0.418159
           1990           1990        62.7694        63.3333      -0.419955
           1995           1995        64.4355             65      -0.421838
           2000           2000        66.1016        66.6667      -0.423752
           2005           2005        67.7675        68.3333      -0.425822
           2010           2010        69.4335             70      -0.427815
           2015           2015        71.0994        71.6667      -0.429879
           2020           2020        72.7651        73.3333      -0.432155
           2025           2025        74.4304             75      -0.434746
           2030           2030        76.0951        76.6667      -0.437873
           2035           2035         77.759        78.3333      -0.441546
           2040           2040        79.4217             80      -0.446229
           2045           2045        81.0825        81.6667      -0.452421
           2050           2050        82.7434        83.3333      -0.458534
           2055           2055        84.4043             85      -0.464717
           2060           2060        86.0656        86.6667      -0.470679
           2065           2065        87.7274        88.3333      -0.476219
           2070           2070        89.3897             90      -0.481464
           2075           2075        91.0527        91.6667      -0.486199
           2080           2080        92.7164        93.3333      -0.490402
           2085           2085        94.3805             95      -0.494324
           2090           2090        96.0453        96.6667      -0.497746
           2095           2095        97.7105        98.3333      -0.500854
           2100           2100        99.3762            100      -0.503555
           2105           2105        101.039        101.667      -0.506004
           2110           2110        102.703        103.333        -0.5083
           2115           2115        104.367            105      -0.510388
           2120           2120        106.031        106.667      -0.512434
           2125           2125        107.694        108.333      -0.514443
           2130           2130        109.359            110      -0.516333
           2135           2135        111.023        111.667      -0.518238
           2140           2140        112.687        113.333      -0.520006
           2145           2145        114.351            115      -0.521819
           2150           2150        116.016        116.667      -0.523419
           2155           2155         117.68        118.333      -0.525073
           2160           2160        119.345            120      -0.526819
           2165           2165        121.009        121.667      -0.528476
           2170           2170        122.674        123.333      -0.529926
           2175           2175        124.339            125      -0.531258
           2180           2180        126.004        126.667      -0.532682
           2185           2185        127.669        128.333      -0.534182
           2190           2190        129.333            130      -0.535871
           2195           2195        130.998        131.667      -0.537561
           2200           2200        132.663        133.333      -0.539114
           2205           2205        134.328            135      -0.540746
           2210           2210        135.993        136.667      -0.542298
           2215           2215        137.658        138.333      -0.543749
           2220           2220        139.323            140      -0.545226
           2225           2225        140.988        141.667      -0.546656
           2230           2230        142.653        143.333      -0.548023
           2235           2235        144.319            145      -0.549505
           2240           2240        145.984        146.667      -0.551031
           2245           2245        147.649        148.333      -0.552692
           2250           2250        149.314            150      -0.554443
           2255           2255        150.978        151.667      -0.556296
           2260           2260        152.643        153.333       -0.55822
           2265           2265        154.308            155      -0.560384
           2270           2270        155.972        156.667      -0.562727
           2275           2275        157.636        158.333      -0.565192
           2280           2280        159.301            160      -0.567486
           2285           2285        160.965        161.667      -0.569796
           2290           2290         162.63        163.333      -0.571852
           2295           2295        164.295            165      -0.573856
           2300           2300         165.96        166.667      -0.575689
           2305           2305        167.625        168.333       -0.57729
           2310           2310        169.291            170       -0.57887
           2315           2315        170.956        171.667      -0.580375
           2320           2320        172.622        173.333       -0.58178
           2325           2325        174.288            175      -0.582954
           2330           2330        175.955        176.667      -0.583794
           2335           2335        177.622        178.333      -0.584509
           2340           2340        179.289            180      -0.584903
           2345           2345        180.956        181.667      -0.585208
           2350           2350        182.623        183.333      -0.585642
           2355           2355        184.291            185      -0.585973
           2360           2360        185.957        186.667      -0.586611
           2365           2365        187.625        188.333      -0.587211
           2370           2370        189.291            190       -0.58807
           2375           2375        190.958        191.667      -0.589209
           2380           2380        192.624        193.333      -0.590881
           2385           2385        194.289            195      -0.592803
           2390           2390        195.955        196.667      -0.595021
           2395           2395        197.619        198.333      -0.597628
           2400           2400        199.284            200      -0.600475
           2405           2405        200.948        201.667      -0.603531
           2410           2410        202.613        203.333      -0.606794
           2415           2415        204.277            205      -0.610069
           2420           2420        205.941        206.667      -0.613607
           2425           2425        207.605        208.333      -0.617326
           2430           2430        209.268            210      -0.621426
           2435           2435        210.931        211.667      -0.625865
           2440           2440        212.594        213.333      -0.630646
           2445           2445        214.256            215       -0.63598
           2450           2450        215.918        216.667      -0.641699
           2455           2455        217.579        218.333      -0.647938
           2460           2460         219.24            220       -0.65466
           2465           2465        220.899        221.667      -0.662484
           2470           2470        222.557        223.333      -0.671838
           2475           2475        224.214            225      -0.682013
           2480           2480         225.87        226.667      -0.693033
           2485           2485        227.523        228.333      -0.706403
           2490           2490        229.177            230      -0.720209
           2495           2495        230.829        231.667      -0.734892
           2500           2500         232.48        233.333      -0.750351
           2505           2505         234.13            235      -0.767787
           2510           2510        235.778        236.667      -0.785858
           2515           2515        237.424        238.333      -0.807403
           2520           2520        239.065            240        -0.8327
           2525           2525        240.699        241.667       -0.86413
           2530           2530        242.327        243.333      -0.901291
           2535           2535        243.949            245      -0.944901
           2540           2540        245.567        246.667      -0.991902
           2545           2545        247.185        248.333       -1.03914
           2550           2550        248.811            250       -1.07928
           2555           2555        250.452        251.667       -1.10656
           2560           2560        252.122        253.333       -1.10766
           2565           2565        253.827            255       -1.07573
           2570           2570        255.573        256.667       -1.00648
           2575           2575        257.342        258.333      -0.915842
           2580           2580        259.106            260       -0.82928
           2585           2585        260.847        261.667      -0.762972
           2590           2590        262.567        263.333      -0.716584
           2595           2595        264.269            265      -0.685589
           2600           2600        265.961        266.667      -0.664609
           2605           2605        267.644        268.333      -0.651737
           2610           2610        269.323            270      -0.643097
           2615           2615            271        271.667       -0.63608
           2620           2620        272.672        273.333      -0.633542
           2625           2625        274.343            275      -0.632341
           2630           2630        276.014        276.667      -0.630687
           2635           2635        277.685        278.333      -0.629549
           2640           2640        279.355            280      -0.628615
           2645           2645        281.026        281.667      -0.627863
           2650           2650        282.696        283.333      -0.627367
           2655           2655        284.366            285      -0.627027
           2660           2660        286.036        286.667      -0.626906
           2665           2665        287.705        288.333      -0.626911
           2670           2670        289.375            290      -0.626854
           2675           2675        291.045        291.667      -0.626813
           2680           2680        292.715        293.333      -0.626863
           2685           2685        294.385            295      -0.626888
           2690           2690        296.055        296.667      -0.626887
           2695           2695        297.724        298.333       -0.62694
           2699           2699         299.06        299.667      -0.626983

________________________________________________________________________________
Not signed                                                        STARe SW 12.00