File: Polymers lab/2/TGA/ESERCITAZIONI MARZO PNEUMATICO MARANGONI.txt
.003733334 25.24162 10.05957 0.0000000 0.0000000 0.0000000 0.0000000 0.0000000 25.24162 10.05957 10.00012 9.998238 10.05914 25.31174 22.20871 0.0000000 1.163537 2.63039E-4
0.2291667 25.78152 10.05802 0.0000000 0.0000000 0.0000000 0.0000000 0.0000000 25.78152 10.05802 10.01420 10.00407 10.05930 25.82709 22.98990 22.03380 4.523418 -3.9655E-5
0.4625000 28.23824 10.05845 0.0000000 0.0000000 0.0000000 0.0000000 0.0000000 28.23824 10.05845 9.993295 10.00008 10.05951 28.21672 17.14691 17.35170 4.233852 -6.1642E-4
0.6958332 30.93809 10.05909 0.0000000 0.0000000 0.0000000 0.0000000 0.0000000 30.93809 10.05909 9.979474 9.998462 10.05940 30.83389 14.90749 14.74210 4.018740 -1.1173E-3
0.9291668 33.31116 10.05926 0.0000000 0.0000000 0.0000000 0.0000000 0.0000000 33.31116 10.05926 9.997982 9.998359 10.05936 33.13444 14.93602 15.43770 4.085559 -7.1913E-4
1.162500 35.64344 10.05932 0.0000000 0.0000000 0.0000000 0.0000000 0.0000000 35.64344 10.05932 9.998474 9.996410 10.05935 35.39679 15.97420 15.54630 4.073192 -2.9431E-4
1.395834 38.02748 10.05938 0.0000000 0.0000000 0.0000000 0.0000000 0.0000000 38.02748 10.05938 9.986232 10.00197 10.05940 37.71468 14.92689 14.88100 4.087642 -1.1281E-4
1.629167 40.40276 10.05937 0.0000000 0.0000000 0.0000000 0.0000000 0.0000000 40.40276 10.05937 10.00452 9.987378 10.05936 40.02519 14.65888 15.19260 4.103732 -4.4935E-5
1.862500 42.76586 10.05937 0.0000000 0.0000000 0.0000000 0.0000000 0.0000000 42.76586 10.05937 9.979449 9.992028 10.05936 42.31981 14.90105 14.91570 4.054454 3.05210E-5
2.095833 45.12312 10.05940 0.0000000 0.0000000 0.0000000 0.0000000 0.0000000 45.12312 10.05940 9.998778 9.998962 10.05937 44.61629 14.82440 15.05240 4.097652 2.18256E-4
2.329166 47.47883 10.05930 0.0000000 0.0000000 0.0000000 0.0000000 0.0000000 47.47883 10.05930 10.02123 10.00264 10.05920 46.90652 14.73487 15.01270 4.081920 5.63612E-4
2.562500 49.82626 10.05911 0.0000000 0.0000000 0.0000000 0.0000000 0.0000000 49.82626 10.05911 10.01145 10.01106 10.05891 49.19272 14.88541 15.12200 4.122860 7.90753E-4
2.795834 52.16874 10.05887 0.0000000 0.0000000 0.0000000 0.0000000 0.0000000 52.16874 10.05887 9.999212 10.00893 10.05869 51.47446 15.88133 15.12150 4.162944 7.54153E-4
3.029167 54.51135 10.05874 0.0000000 0.0000000 0.0000000 0.0000000 0.0000000 54.51135 10.05874 10.00239 9.995090 10.05868 53.75723 15.94171 15.77360 4.209201 6.11500E-4
3.262500 56.85087 10.05863 0.0000000 0.0000000 0.0000000 0.0000000 0.0000000 56.85087 10.05863 10.02425 10.00107 10.05857 56.03658 16.31270 15.79920 4.242602 6.14130E-4
3.495834 59.19174 10.05848 0.0000000 0.0000000 0.0000000 0.0000000 0.0000000 59.19174 10.05848 10.01503 10.01467 10.05835 58.32045 16.48285 16.19230 4.276958 8.07150E-4
3.729167 61.52996 10.05823 0.0000000 0.0000000 0.0000000 0.0000000 0.0000000 61.52996 10.05823 10.00010 10.00783 10.05803 60.60241 16.36300 16.59700 4.260776 .001032537
3.962500 63.86389 10.05798 0.0000000 0.0000000 0.0000000 0.0000000 0.0000000 63.86389 10.05798 9.996524 9.997528 10.05778 62.87744 17.01287 17.03120 4.305866 .001220070
4.195833 66.19714 10.05768 0.0000000 0.0000000 0.0000000 0.0000000 0.0000000 66.19714 10.05768 10.00013 10.00291 10.05744 65.15640 17.27156 17.21170 4.362377 .001418053
4.429167 68.53248 10.05731 0.0000000 0.0000000 0.0000000 0.0000000 0.0000000 68.53248 10.05731 9.998818 9.992268 10.05701 67.43420 17.72967 17.66610 4.362949 .001645477
4.662500 70.86374 10.05691 0.0000000 0.0000000 0.0000000 0.0000000 0.0000000 70.86374 10.05691 10.02290 10.00269 10.05657 69.71100 18.25994 17.58640 4.412846 .001819673
4.895834 73.19647 10.05645 0.0000000 0.0000000 0.0000000 0.0000000 0.0000000 73.19647 10.05645 10.00954 9.952301 10.05611 71.98862 18.42663 18.22940 4.436489 .001965816
5.129166 75.52862 10.05599 0.0000000 0.0000000 0.0000000 0.0000000 0.0000000 75.52862 10.05599 9.993915 10.00756 10.05553 74.26574 18.64071 18.52680 4.478710 .002119483
5.362500 77.86020 10.05546 0.0000000 0.0000000 0.0000000 0.0000000 0.0000000 77.86020 10.05546 10.00368 10.00361 10.05499 76.54612 18.90022 18.72230 4.485256 .002287598
5.595832 80.19195 10.05491 0.0000000 0.0000000 0.0000000 0.0000000 0.0000000 80.19195 10.05491 10.00604 9.999384 10.05443 78.82199 18.96886 19.33330 4.550144 .002491003
5.829168 82.51900 10.05431 0.0000000 0.0000000 0.0000000 0.0000000 0.0000000 82.51900 10.05431 9.992245 9.993969 10.05377 81.09582 19.70059 19.75170 4.540691 .002743780
6.062500 84.84928 10.05363 0.0000000 0.0000000 0.0000000 0.0000000 0.0000000 84.84928 10.05363 10.22424 9.998926 10.05310 83.37572 20.20767 19.88690 4.604724 .003010960
6.295832 87.17830 10.05288 0.0000000 0.0000000 0.0000000 0.0000000 0.0000000 87.17830 10.05288 10.00966 9.998981 10.05228 85.65149 20.53852 20.38640 4.599224 .003292267
6.529166 89.51049 10.05212 0.0000000 0.0000000 0.0000000 0.0000000 0.0000000 89.51049 10.05212 10.01092 9.995746 10.05150 87.92798 20.49968 20.50270 4.627689 .003508161
6.762500 91.83703 10.05123 0.0000000 0.0000000 0.0000000 0.0000000 0.0000000 91.83703 10.05123 10.01141 9.992258 10.05059 90.20436 21.27247 20.95240 4.655300 .003723762
6.995834 94.16489 10.05036 0.0000000 0.0000000 0.0000000 0.0000000 0.0000000 94.16489 10.05036 10.01358 10.00446 10.04968 92.48304 21.48765 21.48380 4.685161 .003902576
7.229166 96.49299 10.04940 0.0000000 0.0000000 0.0000000 0.0000000 0.0000000 96.49299 10.04940 10.00318 10.00201 10.04870 94.75931 21.96738 21.93710 4.714344 .004093572
7.462500 98.82332 10.04844 0.0000000 0.0000000 0.0000000 0.0000000 0.0000000 98.82332 10.04844 9.982988 9.998228 10.04764 97.03682 21.99954 22.29650 4.769908 .004325580
7.695832 101.1451 10.04738 0.0000000 0.0000000 0.0000000 0.0000000 0.0000000 101.1451 10.04738 9.998329 9.994381 10.04650 99.31070 23.04176 22.38590 4.784672 .004541130
7.929168 103.4754 10.04629 0.0000000 0.0000000 0.0000000 0.0000000 0.0000000 103.4754 10.04629 10.00344 10.00026 10.04538 101.5869 22.92934 22.94410 4.809833 .004766143
8.162500 105.8049 10.04517 0.0000000 0.0000000 0.0000000 0.0000000 0.0000000 105.8049 10.04517 9.993025 10.00311 10.04426 103.8709 23.08364 23.17910 4.828876 .004991526
8.395832 108.1316 10.04397 0.0000000 0.0000000 0.0000000 0.0000000 0.0000000 108.1316 10.04397 10.00058 9.993416 10.04301 106.1490 23.70037 23.56740 4.844333 .005222900
8.629166 110.4610 10.04271 0.0000000 0.0000000 0.0000000 0.0000000 0.0000000 110.4610 10.04271 10.00453 10.04104 10.04176 108.4263 23.75808 23.91910 4.879756 .005439624
8.862500 112.7892 10.04142 0.0000000 0.0000000 0.0000000 0.0000000 0.0000000 112.7892 10.04142 10.00799 9.999851 10.04040 110.7080 23.80939 24.31770 4.900134 .005630242
9.095834 115.1150 10.04008 0.0000000 0.0000000 0.0000000 0.0000000 0.0000000 115.1150 10.04008 10.04401 9.996499 10.03902 112.9856 24.56874 24.39430 4.936977 .005826557
9.329166 117.4387 10.03870 0.0000000 0.0000000 0.0000000 0.0000000 0.0000000 117.4387 10.03870 10.01669 9.991939 10.03764 115.2617 25.27262 24.76570 4.958560 .006028485
9.562500 119.7643 10.03727 0.0000000 0.0000000 0.0000000 0.0000000 0.0000000 119.7643 10.03727 9.990241 9.994758 10.03614 117.5427 25.61326 25.35320 5.015125 .006226032
9.795834 122.0926 10.03578 0.0000000 0.0000000 0.0000000 0.0000000 0.0000000 122.0926 10.03578 10.01568 10.00310 10.03464 119.8222 25.96006 25.63290 5.002734 .006442278
10.02917 124.4209 10.03425 0.0000000 0.0000000 0.0000000 0.0000000 0.0000000 124.4209 10.03425 10.00104 9.994301 10.03308 122.1042 26.03540 25.98490 5.018772 .006601080
10.26250 126.7481 10.03266 0.0000000 0.0000000 0.0000000 0.0000000 0.0000000 126.7481 10.03266 10.30927 9.997506 10.03143 124.3883 26.21104 26.17900 5.086368 .006728330
10.49584 129.0719 10.03110 0.0000000 0.0000000 0.0000000 0.0000000 0.0000000 129.0719 10.03110 9.997676 10.00303 10.02987 126.6669 27.16334 26.73470 5.072056 .006862738
10.72917 131.4016 10.02948 0.0000000 0.0000000 0.0000000 0.0000000 0.0000000 131.4016 10.02948 10.01234 9.993863 10.02816 128.9509 27.00249 27.12890 5.092822 .007028232
10.96250 133.7272 10.02781 0.0000000 0.0000000 0.0000000 0.0000000 0.0000000 133.7272 10.02781 10.00851 10.00070 10.02648 131.2324 27.26609 27.43270 5.123813 .007263251
11.19583 136.0535 10.02610 0.0000000 0.0000000 0.0000000 0.0000000 0.0000000 136.0535 10.02610 10.01572 9.996766 10.02469 133.5166 27.76594 27.90600 5.144009 .007534082
11.42917 138.3796 10.02430 0.0000000 0.0000000 0.0000000 0.0000000 0.0000000 138.3796 10.02430 9.996416 10.00636 10.02289 135.7996 28.35506 28.18590 5.163022 .007834882
11.66250 140.7038 10.02241 0.0000000 0.0000000 0.0000000 0.0000000 0.0000000 140.7038 10.02241 10.00017 10.00167 10.02092 138.0806 28.82861 28.37830 5.191410 .008063299
11.89583 143.0339 10.02050 0.0000000 0.0000000 0.0000000 0.0000000 0.0000000 143.0339 10.02050 10.00788 9.990856 10.01901 140.3679 28.83154 28.96090 5.232739 .008283585
12.12916 145.3574 10.01857 0.0000000 0.0000000 0.0000000 0.0000000 0.0000000 145.3574 10.01857 9.983139 10.00497 10.01706 142.6484 29.55256 29.43520 5.244266 .008554876
12.36250 147.6872 10.01651 0.0000000 0.0000000 0.0000000 0.0000000 0.0000000 147.6872 10.01651 9.991547 9.999890 10.01490 144.9362 29.39513 29.84910 5.247310 .008864902
12.59584 150.0115 10.01438 0.0000000 0.0000000 0.0000000 0.0000000 0.0000000 150.0115 10.01438 9.995188 10.00404 10.01276 147.2218 29.99337 30.14380 5.282178 .009180701
12.82916 152.3365 10.01222 0.0000000 0.0000000 0.0000000 0.0000000 0.0000000 152.3365 10.01222 9.973326 10.00021 10.01046 149.5056 30.79594 30.14400 5.313809 .009485539
13.06250 154.6633 10.00998 0.0000000 0.0000000 0.0000000 0.0000000 0.0000000 154.6633 10.00998 9.969191 10.01017 10.00820 151.7913 31.08906 30.84970 5.323856 .009892168
13.29584 156.9903 10.00759 0.0000000 0.0000000 0.0000000 0.0000000 0.0000000 156.9903 10.00759 10.09132 9.984391 10.00570 154.0815 31.46427 30.93420 5.338413 0.01031694
13.52916 159.3165 10.00513 0.0000000 0.0000000 0.0000000 0.0000000 0.0000000 159.3165 10.00513 10.00858 9.989544 10.00320 156.3647 31.79855 31.67750 5.366146 0.01074176
13.76250 161.6434 10.00259 0.0000000 0.0000000 0.0000000 0.0000000 0.0000000 161.6434 10.00259 9.933084 10.00058 10.00059 158.6521 31.96473 31.87640 5.390011 0.01108910
13.99583 163.9680 9.999918 0.0000000 0.0000000 0.0000000 0.0000000 0.0000000 163.9680 9.999918 10.00192 9.998484 9.997826 160.9356 32.77368 32.26310 5.421414 0.01150707
14.22917 166.2963 9.997222 0.0000000 0.0000000 0.0000000 0.0000000 0.0000000 166.2963 9.997222 9.994969 9.996734 9.995043 163.2251 32.68768 32.67450 5.451108 0.01205474
14.46250 168.6202 9.994314 0.0000000 0.0000000 0.0000000 0.0000000 0.0000000 168.6202 9.994314 9.981711 10.01117 9.991981 165.5112 33.56703 32.97360 5.443645 0.01258634
14.69583 170.9497 9.991269 0.0000000 0.0000000 0.0000000 0.0000000 0.0000000 170.9497 9.991269 9.981835 10.00266 9.988991 167.7994 33.41372 33.19740 5.484340 0.01315626
14.92917 173.2748 9.988220 0.0000000 0.0000000 0.0000000 0.0000000 0.0000000 173.2748 9.988220 9.994151 9.998141 9.985874 170.0871 34.07322 33.72990 5.498440 0.01376434
15.16250 175.6004 9.984898 0.0000000 0.0000000 0.0000000 0.0000000 0.0000000 175.6004 9.984898 10.20732 9.998207 9.982251 172.3730 34.36403 34.36330 5.515865 0.01457737
15.39583 177.9279 9.981358 0.0000000 0.0000000 0.0000000 0.0000000 0.0000000 177.9279 9.981358 9.983390 10.01487 9.978522 174.6604 34.78665 34.52920 5.521252 0.01548493
15.62917 180.2528 9.977634 0.0000000 0.0000000 0.0000000 0.0000000 0.0000000 180.2528 9.977634 10.00337 9.999864 9.974658 176.9481 35.28794 35.26720 5.563336 0.01635579
15.86250 182.5834 9.973724 0.0000000 0.0000000 0.0000000 0.0000000 0.0000000 182.5834 9.973724 9.997138 9.992321 9.970621 179.2406 34.81587 35.38660 5.561878 0.01724561
16.09583 184.9068 9.969586 0.0000000 0.0000000 0.0000000 0.0000000 0.0000000 184.9068 9.969586 10.00930 10.01035 9.966282 181.5273 35.73935 35.77080 5.608326 0.01832023
16.32916 187.2325 9.965191 0.0000000 0.0000000 0.0000000 0.0000000 0.0000000 187.2325 9.965191 9.941082 9.996014 9.961671 183.8149 36.18530 36.39010 5.628468 0.01956324
16.56250 189.5596 9.960450 0.0000000 0.0000000 0.0000000 0.0000000 0.0000000 189.5596 9.960450 10.00031 9.991105 9.956613 186.1069 36.60055 36.51950 5.657192 0.02086484
16.79584 191.8866 9.955410 0.0000000 0.0000000 0.0000000 0.0000000 0.0000000 191.8866 9.955410 9.995438 9.943524 9.951408 188.3954 36.87000 36.95810 5.662160 0.02224825
17.02917 194.2125 9.950079 0.0000000 0.0000000 0.0000000 0.0000000 0.0000000 194.2125 9.950079 9.994530 10.00959 9.945812 190.6851 37.50835 37.29160 5.675755 0.02379183
17.26250 196.5384 9.944312 0.0000000 0.0000000 0.0000000 0.0000000 0.0000000 196.5384 9.944312 9.972988 9.971282 9.939642 192.9758 37.88772 38.08310 5.703701 0.02544291
17.49583 198.8658 9.938122 0.0000000 0.0000000 0.0000000 0.0000000 0.0000000 198.8658 9.938122 9.956888 9.998828 9.933222 195.2696 38.37039 38.30620 5.703945 0.02713348
17.72916 201.1937 9.931644 0.0000000 0.0000000 0.0000000 0.0000000 0.0000000 201.1937 9.931644 10.02100 9.987832 9.926446 197.5634 38.45781 38.45780 5.727925 0.02882286
17.96250 203.5202 9.924681 0.0000000 0.0000000 0.0000000 0.0000000 0.0000000 203.5202 9.924681 9.974272 10.00492 9.919138 199.8512 38.75756 39.20430 5.761326 0.03068028
18.19583 205.8462 9.917290 0.0000000 0.0000000 0.0000000 0.0000000 0.0000000 205.8462 9.917290 9.992230 10.00382 9.911345 202.1420 39.49261 39.45230 5.773824 0.03272232
18.42917 208.1704 9.909394 0.0000000 0.0000000 0.0000000 0.0000000 0.0000000 208.1704 9.909394 10.34370 10.00112 9.903064 204.4317 40.24261 39.95750 5.803105 0.03491310
18.66250 210.4970 9.900985 0.0000000 0.0000000 0.0000000 0.0000000 0.0000000 210.4970 9.900985 10.00266 10.01630 9.894239 206.7228 40.44903 40.19000 5.821019 0.03713856
18.89584 212.8235 9.892008 0.0000000 0.0000000 0.0000000 0.0000000 0.0000000 212.8235 9.892008 10.00041 10.00255 9.884939 209.0151 40.97768 40.70020 5.820980 0.03943704
19.12917 215.1490 9.882541 0.0000000 0.0000000 0.0000000 0.0000000 0.0000000 215.1490 9.882541 9.993152 10.00715 9.875050 211.3066 41.39954 41.37910 5.847012 0.04180304
19.36250 217.4786 9.872468 0.0000000 0.0000000 0.0000000 0.0000000 0.0000000 217.4786 9.872468 10.01564 10.00521 9.864453 213.5999 41.43800 41.64810 5.873006 0.04428684
19.59583 219.8036 9.861795 0.0000000 0.0000000 0.0000000 0.0000000 0.0000000 219.8036 9.861795 9.995601 9.992445 9.853258 215.8900 41.97976 42.10110 5.884450 0.04683842
19.82916 222.1287 9.850570 0.0000000 0.0000000 0.0000000 0.0000000 0.0000000 222.1287 9.850570 10.00984 10.00472 9.841649 218.1800 42.49036 42.21430 5.921658 0.04947659
20.06250 224.4576 9.838676 0.0000000 0.0000000 0.0000000 0.0000000 0.0000000 224.4576 9.838676 9.984608 9.998519 9.829194 220.4742 42.60059 42.75660 5.937428 0.05217594
20.29584 226.7838 9.826130 0.0000000 0.0000000 0.0000000 0.0000000 0.0000000 226.7838 9.826130 10.01100 10.00485 9.816189 222.7670 43.45044 43.27820 5.932347 0.05501296
20.52917 229.1098 9.812958 0.0000000 0.0000000 0.0000000 0.0000000 0.0000000 229.1098 9.812958 9.995166 10.01311 9.802444 225.0574 43.74203 43.79460 5.970280 0.05793972
20.76250 231.4350 9.799059 0.0000000 0.0000000 0.0000000 0.0000000 0.0000000 231.4350 9.799059 9.958942 10.01044 9.787993 227.3470 44.18398 44.37630 6.016201 0.06097955
20.99583 233.7627 9.784412 0.0000000 0.0000000 0.0000000 0.0000000 0.0000000 233.7627 9.784412 10.00235 10.04879 9.772778 229.6408 44.72143 44.71680 5.985348 0.06407704
21.22916 236.0908 9.769090 0.0000000 0.0000000 0.0000000 0.0000000 0.0000000 236.0908 9.769090 9.999441 9.998620 9.756954 231.9328 44.66988 44.96900 6.042332 0.06723082
21.46250 238.4150 9.752981 0.0000000 0.0000000 0.0000000 0.0000000 0.0000000 238.4150 9.752981 10.00096 9.986705 9.740262 234.2230 45.40364 45.80420 6.040868 0.07051356
21.69583 240.7402 9.736109 0.0000000 0.0000000 0.0000000 0.0000000 0.0000000 240.7402 9.736109 9.989022 10.00517 9.722714 236.5140 46.09132 45.97220 6.058330 0.07382548
21.92917 243.0666 9.718414 0.0000000 0.0000000 0.0000000 0.0000000 0.0000000 243.0666 9.718414 9.993438 9.998321 9.704461 238.8069 46.66481 46.13270 6.058742 0.07710175
22.16250 245.3944 9.700024 0.0000000 0.0000000 0.0000000 0.0000000 0.0000000 245.3944 9.700024 10.03782 9.992116 9.685441 241.1008 47.21570 46.53840 6.110570 0.08034295
22.39584 247.7215 9.680841 0.0000000 0.0000000 0.0000000 0.0000000 0.0000000 247.7215 9.680841 9.988965 9.999259 9.665666 243.3919 47.27190 47.37930 6.112065 0.08352128
22.62917 250.0468 9.660926 0.0000000 0.0000000 0.0000000 0.0000000 0.0000000 250.0468 9.660926 9.991691 9.996085 9.645241 245.6866 47.95549 47.65860 6.116238 0.08656019
22.86250 252.3726 9.640288 0.0000000 0.0000000 0.0000000 0.0000000 0.0000000 252.3726 9.640288 9.983758 10.00232 9.624047 247.9795 48.59574 48.21610 6.139851 0.08936901
23.09583 254.7032 9.619063 0.0000000 0.0000000 0.0000000 0.0000000 0.0000000 254.7032 9.619063 9.991863 10.00425 9.602322 250.2756 48.35984 48.38400 6.154507 0.09197110
23.32916 257.0260 9.597235 0.0000000 0.0000000 0.0000000 0.0000000 0.0000000 257.0260 9.597235 10.01499 9.994074 9.580061 252.5654 49.31196 48.97170 6.167622 0.09486451
23.56250 259.3519 9.574882 0.0000000 0.0000000 0.0000000 0.0000000 0.0000000 259.3519 9.574882 9.995941 10.00243 9.557288 254.8587 49.47238 49.80350 6.193882 0.09725469
23.79584 261.6760 9.551555 0.0000000 0.0000000 0.0000000 0.0000000 0.0000000 261.6760 9.551555 9.992201 9.992584 9.533920 257.1511 50.57452 49.86760 6.216649 0.09949644
24.02917 264.0038 9.528241 0.0000000 0.0000000 0.0000000 0.0000000 0.0000000 264.0038 9.528241 10.00769 9.997241 9.509903 259.4434 50.79602 50.59280 6.246594 0.1017856
24.26250 266.3290 9.504112 0.0000000 0.0000000 0.0000000 0.0000000 0.0000000 266.3290 9.504112 10.01141 9.997203 9.485118 261.7400 51.48730 51.03550 6.259320 0.1051243
24.49583 268.6575 9.479272 0.0000000 0.0000000 0.0000000 0.0000000 0.0000000 268.6575 9.479272 9.989102 9.997149 9.459706 264.0367 51.56568 51.42970 6.308018 0.1084944
24.72916 270.9835 9.452506 0.0000000 0.0000000 0.0000000 0.0000000 0.0000000 270.9835 9.452506 9.999008 10.00305 9.433499 266.3310 52.18535 51.85020 6.302296 0.1111363
24.96250 273.3102 9.427121 0.0000000 0.0000000 0.0000000 0.0000000 0.0000000 273.3102 9.427121 10.01840 9.988319 9.407001 268.6228 52.42361 52.61790 6.307286 0.1136769
25.19583 275.6361 9.400320 0.0000000 0.0000000 0.0000000 0.0000000 0.0000000 275.6361 9.400320 9.998206 10.00880 9.379639 270.9182 53.10439 53.00420 6.341214 0.1162337
25.42917 277.9598 9.372530 0.0000000 0.0000000 0.0000000 0.0000000 0.0000000 277.9598 9.372530 10.00624 9.995090 9.351620 273.2098 53.94038 53.16580 6.349347 0.1201355
25.66250 280.2874 9.344098 0.0000000 0.0000000 0.0000000 0.0000000 0.0000000 280.2874 9.344098 10.01271 9.995116 9.323195 275.5086 54.04003 53.95570 6.361470 0.1233254
25.89584 282.6164 9.314788 0.0000000 0.0000000 0.0000000 0.0000000 0.0000000 282.6164 9.314788 10.01314 10.00509 9.294164 277.8060 54.23770 54.48030 6.384503 0.1259387
26.12917 284.9406 9.284855 0.0000000 0.0000000 0.0000000 0.0000000 0.0000000 284.9406 9.284855 10.00160 9.994996 9.264562 280.0998 54.92787 55.17940 6.387662 0.1279409
26.36250 287.2671 9.254758 0.0000000 0.0000000 0.0000000 0.0000000 0.0000000 287.2671 9.254758 10.00945 9.989574 9.234789 282.3957 55.30964 55.56820 6.401844 0.1289741
26.59583 289.5935 9.224512 0.0000000 0.0000000 0.0000000 0.0000000 0.0000000 289.5935 9.224512 9.998358 9.950138 9.204694 284.6937 55.91204 56.11240 6.440130 0.1292696
26.82916 291.9188 9.194149 0.0000000 0.0000000 0.0000000 0.0000000 0.0000000 291.9188 9.194149 9.986139 9.998809 9.174469 286.9858 56.39092 56.66760 6.443112 0.1294657
27.06250 294.2459 9.164076 0.0000000 0.0000000 0.0000000 0.0000000 0.0000000 294.2459 9.164076 10.01068 10.00519 9.144351 289.2817 56.73572 56.95770 6.470174 0.1289428
27.29584 296.5711 9.133658 0.0000000 0.0000000 0.0000000 0.0000000 0.0000000 296.5711 9.133658 9.992294 10.00364 9.114663 291.5771 57.23310 57.40740 6.472722 0.1271726
27.52917 298.8962 9.104330 0.0000000 0.0000000 0.0000000 0.0000000 0.0000000 298.8962 9.104330 10.01196 9.993134 9.084665 293.8728 58.04872 57.81710 6.493191 0.1249625
27.76250 301.2200 9.075538 0.0000000 0.0000000 0.0000000 0.0000000 0.0000000 301.2200 9.075538 9.998681 10.01058 9.055344 296.1670 58.62886 58.66700 6.528370 0.1224440
27.99583 303.5484 9.046919 0.0000000 0.0000000 0.0000000 0.0000000 0.0000000 303.5484 9.046919 9.992639 9.999975 9.026428 298.4680 58.99150 59.05860 6.551549 0.1207668
28.22916 305.8710 9.018953 0.0000000 0.0000000 0.0000000 0.0000000 0.0000000 305.8710 9.018953 9.997040 9.999712 8.998138 300.7586 59.82836 59.92830 6.556355 0.1193250
28.46250 308.1968 8.991418 0.0000000 0.0000000 0.0000000 0.0000000 0.0000000 308.1968 8.991418 9.988464 10.00212 8.970536 303.0542 60.23041 60.51250 6.605024 0.1164710
28.69584 310.5236 8.964008 0.0000000 0.0000000 0.0000000 0.0000000 0.0000000 310.5236 8.964008 10.00128 9.998535 8.944040 305.3524 60.54050 60.79940 6.607250 0.1125152
28.92916 312.8472 8.938488 0.0000000 0.0000000 0.0000000 0.0000000 0.0000000 312.8472 8.938488 10.00473 9.991199 8.918839 307.6464 61.55816 61.38290 6.621640 0.1075580
29.16250 315.1738 8.913818 0.0000000 0.0000000 0.0000000 0.0000000 0.0000000 315.1738 8.913818 9.954486 10.00432 8.894999 309.9439 61.93031 61.62910 6.623524 0.1023578
29.39584 317.4984 8.890412 0.0000000 0.0000000 0.0000000 0.0000000 0.0000000 317.4984 8.890412 10.00213 10.00394 8.872668 312.2390 62.68946 62.39690 6.643757 0.09668374
29.62917 319.8271 8.868478 0.0000000 0.0000000 0.0000000 0.0000000 0.0000000 319.8271 8.868478 10.01724 10.00808 8.851898 314.5382 62.64244 62.74410 6.663532 0.09027238
29.86250 322.1515 8.848172 0.0000000 0.0000000 0.0000000 0.0000000 0.0000000 322.1515 8.848172 10.01296 9.999778 8.832808 316.8350 63.61682 63.30020 6.679646 0.08355492
30.09583 324.4777 8.829434 0.0000000 0.0000000 0.0000000 0.0000000 0.0000000 324.4777 8.829434 10.00363 9.993836 8.815394 319.1338 63.86812 63.91050 6.712628 0.07675018
30.32916 326.8002 8.812259 0.0000000 0.0000000 0.0000000 0.0000000 0.0000000 326.8002 8.812259 9.984082 9.999482 8.799345 321.4278 64.61280 64.78800 6.729694 0.07011342
30.56250 329.1261 8.796700 0.0000000 0.0000000 0.0000000 0.0000000 0.0000000 329.1261 8.796700 10.00356 9.994068 8.785122 323.7334 65.14465 65.14480 6.750760 0.06412140
30.79584 331.4540 8.782413 0.0000000 0.0000000 0.0000000 0.0000000 0.0000000 331.4540 8.782413 10.00668 10.00657 8.771590 326.0260 65.54052 66.06980 6.759144 0.05875805
31.02917 333.7724 8.769296 0.0000000 0.0000000 0.0000000 0.0000000 0.0000000 333.7724 8.769296 9.987170 9.999918 8.759421 328.3128 66.45476 66.40700 6.769224 0.05408826
31.26250 336.0966 8.757256 0.0000000 0.0000000 0.0000000 0.0000000 0.0000000 336.0966 8.757256 10.01543 9.998899 8.748178 330.6079 66.94824 66.91990 6.796200 0.05003033
31.49583 338.4224 8.746051 0.0000000 0.0000000 0.0000000 0.0000000 0.0000000 338.4224 8.746051 10.00429 9.995109 8.737492 332.9072 67.63306 67.41920 6.808149 0.04678592
31.72916 340.7522 8.735462 0.0000000 0.0000000 0.0000000 0.0000000 0.0000000 340.7522 8.735462 9.986681 10.00073 8.727399 335.1992 67.66969 67.84430 6.822720 0.04424713
31.96250 343.0710 8.725401 0.0000000 0.0000000 0.0000000 0.0000000 0.0000000 343.0710 8.725401 9.996960 9.992939 8.717709 337.4744 68.78455 68.94739 6.849340 0.04225012
32.19584 345.3980 8.715776 0.0000000 0.0000000 0.0000000 0.0000000 0.0000000 345.3980 8.715776 9.992187 10.00449 8.708394 339.7616 69.79776 69.64060 6.874531 0.04049612
32.42916 347.7130 8.706512 0.0000000 0.0000000 0.0000000 0.0000000 0.0000000 347.7130 8.706512 10.00459 9.995701 8.699449 342.0492 70.23819 70.39650 6.894559 0.03901824
32.66250 350.0412 8.697601 0.0000000 0.0000000 0.0000000 0.0000000 0.0000000 350.0412 8.697601 10.23967 10.00576 8.690708 344.3491 70.89118 70.63550 6.899808 0.03780513
32.89583 352.3667 8.688889 0.0000000 0.0000000 0.0000000 0.0000000 0.0000000 352.3667 8.688889 9.993168 10.08165 8.682194 346.6485 71.19754 71.29430 6.925725 0.03686190
33.12916 354.6926 8.680366 0.0000000 0.0000000 0.0000000 0.0000000 0.0000000 354.6926 8.680366 9.992918 10.00556 8.673782 348.9488 71.66303 71.70000 6.945874 0.03601748
33.36250 357.0130 8.672032 0.0000000 0.0000000 0.0000000 0.0000000 0.0000000 357.0130 8.672032 10.00204 9.996278 8.665628 351.2434 72.84670 72.33780 6.969464 0.03522503
33.59583 359.3392 8.663937 0.0000000 0.0000000 0.0000000 0.0000000 0.0000000 359.3392 8.663937 10.00428 9.997290 8.657676 353.5414 72.79202 73.16170 6.972157 0.03456004
33.82916 361.6610 8.655921 0.0000000 0.0000000 0.0000000 0.0000000 0.0000000 361.6610 8.655921 9.993141 10.00302 8.649676 355.8360 73.78440 73.72530 6.998235 0.03408621
34.06250 363.9822 8.648019 0.0000000 0.0000000 0.0000000 0.0000000 0.0000000 363.9822 8.648019 9.997088 10.00001 8.641858 358.1329 74.54166 74.36390 7.012456 0.03375256
34.29584 366.3056 8.640164 0.0000000 0.0000000 0.0000000 0.0000000 0.0000000 366.3056 8.640164 9.988016 10.00172 8.634081 360.4296 75.21108 74.94730 7.040754 0.03345312
34.52917 368.6291 8.632384 0.0000000 0.0000000 0.0000000 0.0000000 0.0000000 368.6291 8.632384 10.00653 9.988175 8.626345 362.7280 75.68892 75.87750 7.053648 0.03323548
34.76250 370.9522 8.624688 0.0000000 0.0000000 0.0000000 0.0000000 0.0000000 370.9522 8.624688 10.00748 9.994738 8.618678 365.0248 76.51788 76.17510 7.064252 0.03316454
34.99584 373.2728 8.616942 0.0000000 0.0000000 0.0000000 0.0000000 0.0000000 373.2728 8.616942 9.999952 9.980644 8.610898 367.3197 77.16129 77.21770 7.083501 0.08371778
35.22917 375.5980 8.609140 0.0000000 0.0000000 0.0000000 0.0000000 0.0000000 375.5980 8.609140 10.00781 9.990219 8.603103 369.6211 77.73440 77.65710 7.106565 0.1617687
35.46250 378.0054 8.529859 0.0000000 0.0000000 0.0000000 0.0000000 0.0000000 378.0054 8.529859 9.998274 9.997662 8.530170 371.9810 75.27040 77.69380 7.087538 0.2518121
35.69584 380.3372 8.477778 0.0000000 0.0000000 0.0000000 0.0000000 0.0000000 380.3372 8.477778 10.01088 10.00487 8.471412 374.3550 71.69750 77.33760 7.099103 0.3180894
35.92916 382.4556 8.388544 0.0000000 0.0000000 0.0000000 0.0000000 0.0000000 382.4556 8.388544 9.982032 10.01045 8.393663 376.3923 80.00128 85.76691 7.241345 0.3219681
36.16250 384.9018 8.313476 0.0000000 0.0000000 0.0000000 0.0000000 0.0000000 384.9018 8.313476 9.992350 9.963089 8.312644 378.8282 79.94706 79.74420 7.154012 0.3240444
36.39583 387.2406 8.244624 0.0000000 0.0000000 0.0000000 0.0000000 0.0000000 387.2406 8.244624 10.06026 9.989551 8.242353 381.1267 80.62426 80.96830 7.180860 0.2873311
36.62916 389.6267 8.178353 0.0000000 0.0000000 0.0000000 0.0000000 0.0000000 389.6267 8.178353 10.00728 9.999542 8.175447 383.5896 74.54464 80.14520 7.156011 0.2798189
36.86250 391.8988 8.114355 0.0000000 0.0000000 0.0000000 0.0000000 0.0000000 391.8988 8.114355 10.01485 9.999340 8.110702 385.8292 82.37897 81.82270 7.223799 0.2747468
37.09583 394.1904 8.051226 0.0000000 0.0000000 0.0000000 0.0000000 0.0000000 394.1904 8.051226 10.01650 9.998120 8.047334 388.0676 82.78650 82.77260 7.235815 0.2720398
37.32916 396.5108 7.988526 0.0000000 0.0000000 0.0000000 0.0000000 0.0000000 396.5108 7.988526 10.00684 9.993968 7.984546 390.3634 83.93147 83.71980 7.273176 0.2701324
37.56250 398.8377 7.925526 0.0000000 0.0000000 0.0000000 0.0000000 0.0000000 398.8377 7.925526 10.00697 9.986900 7.921643 392.6697 84.66569 84.10340 7.275587 0.2709141
37.79584 401.1628 7.861914 0.0000000 0.0000000 0.0000000 0.0000000 0.0000000 401.1628 7.861913 9.970053 10.00397 7.858236 394.9694 84.13380 86.18939 7.298429 0.2735440
38.02917 403.4837 7.797772 0.0000000 0.0000000 0.0000000 0.0000000 0.0000000 403.4837 7.797772 10.00142 9.998874 7.794254 397.2734 85.74765 85.58390 7.305548 0.2786409
38.26250 405.7872 7.732970 0.0000000 0.0000000 0.0000000 0.0000000 0.0000000 405.7872 7.732969 9.995578 10.00534 7.729622 399.5552 89.10484 87.40040 7.323262 0.2848241
38.49584 408.1402 7.664134 0.0000000 0.0000000 0.0000000 0.0000000 0.0000000 408.1402 7.664134 9.988218 10.03282 7.661770 401.8933 88.33444 85.90130 7.345747 0.2986746
38.72917 410.4413 7.596508 0.0000000 0.0000000 0.0000000 0.0000000 0.0000000 410.4413 7.596508 9.995413 9.997092 7.593951 404.1682 88.59820 88.38540 7.369078 0.3277770
38.96250 412.7300 7.516282 0.0000000 0.0000000 0.0000000 0.0000000 0.0000000 412.7300 7.516282 10.09201 10.00748 7.517804 406.3986 89.91941 89.87781 7.411489 0.3525834
39.19584 415.0704 7.425910 0.0000000 0.0000000 0.0000000 0.0000000 0.0000000 415.0704 7.425909 9.997976 9.999468 7.427866 408.7035 89.57601 90.07170 7.407453 0.3643466
39.42916 417.4261 7.340508 0.0000000 0.0000000 0.0000000 0.0000000 0.0000000 417.4261 7.340508 9.991161 9.997166 7.341940 411.0770 89.94955 89.85450 7.412092 0.3634175
39.66250 419.7777 7.258066 0.0000000 0.0000000 0.0000000 0.0000000 0.0000000 419.7777 7.258064 10.00220 10.00362 7.258944 413.5515 91.14364 92.72609 7.479390 0.3786982
39.89583 422.0466 7.169784 0.0000000 0.0000000 0.0000000 0.0000000 0.0000000 422.0466 7.169784 10.00856 9.996793 7.172149 415.7115 90.99782 90.83039 7.454725 0.4077832
40.12916 424.2743 7.071631 0.0000000 0.0000000 0.0000000 0.0000000 0.0000000 424.2743 7.071630 10.01118 10.00505 7.075851 417.8038 90.90466 95.06859 7.502996 0.4405113
40.36250 426.6660 6.961986 0.0000000 0.0000000 0.0000000 0.0000000 0.0000000 426.6660 6.961986 9.986298 9.921101 6.968765 420.2221 93.61387 94.73420 7.526480 0.4685623
40.59583 429.0088 6.848613 0.0000000 0.0000000 0.0000000 0.0000000 0.0000000 429.0088 6.848614 9.943491 10.25956 6.855629 422.5520 94.53276 94.07069 7.520338 0.4913193
40.82916 431.3352 6.732786 0.0000000 0.0000000 0.0000000 0.0000000 0.0000000 431.3352 6.732786 9.969425 10.03946 6.740128 424.8504 94.27972 95.23309 7.516790 0.5074272
41.06250 433.6308 6.611355 0.0000000 0.0000000 0.0000000 0.0000000 0.0000000 433.6308 6.611355 9.984551 9.997798 6.619592 427.1440 96.07156 96.82590 7.592893 0.5176049
41.29584 435.9809 6.488696 0.0000000 0.0000000 0.0000000 0.0000000 0.0000000 435.9809 6.488696 10.01985 10.00716 6.496942 429.4606 96.05952 95.37531 7.550985 0.5225480
41.52917 438.2892 6.367329 0.0000000 0.0000000 0.0000000 0.0000000 0.0000000 438.2892 6.367329 10.00048 9.970836 6.375486 431.7578 97.28944 97.76590 7.615347 0.5234368
41.76250 440.6088 6.244891 0.0000000 0.0000000 0.0000000 0.0000000 0.0000000 440.6088 6.244891 10.01214 10.00282 6.253174 434.0612 98.37418 98.22860 7.597456 0.5245655
41.99584 442.9304 6.121842 0.0000000 0.0000000 0.0000000 0.0000000 0.0000000 442.9304 6.121842 9.993937 9.991456 6.130251 436.3856 99.26428 99.08390 7.644826 0.5236054
42.22917 445.2887 5.998184 0.0000000 0.0000000 0.0000000 0.0000000 0.0000000 445.2887 5.998184 10.00439 10.00223 6.006680 438.9248 98.92202 98.30640 7.600760 0.5283172
42.46250 447.6074 5.874384 0.0000000 0.0000000 0.0000000 0.0000000 0.0000000 447.6074 5.874384 10.00449 10.01158 5.882864 441.2392 100.3310 98.60380 7.643453 0.5333236
42.69584 449.8912 5.750488 0.0000000 0.0000000 0.0000000 0.0000000 0.0000000 449.8912 5.750488 9.991525 9.994928 5.759064 443.6336 100.4024 100.3355 7.700820 0.5382842
42.92916 452.2175 5.625687 0.0000000 0.0000000 0.0000000 0.0000000 0.0000000 452.2175 5.625687 9.997772 10.00581 5.634335 445.9192 101.3951 102.5522 7.663695 0.5380216
43.16250 454.5299 5.499829 0.0000000 0.0000000 0.0000000 0.0000000 0.0000000 454.5299 5.499829 10.25386 10.00850 5.508594 448.2100 104.4197 102.4581 7.684553 0.5400620
43.39583 456.8476 5.373594 0.0000000 0.0000000 0.0000000 0.0000000 0.0000000 456.8476 5.373594 10.00513 9.996881 5.382445 450.4721 104.7306 103.6404 7.734954 0.5419560
43.62916 459.1705 5.247397 0.0000000 0.0000000 0.0000000 0.0000000 0.0000000 459.1705 5.247397 10.40612 9.996703 5.256050 452.7534 104.6972 104.6051 7.758811 0.5417549
43.86250 461.4831 5.120765 0.0000000 0.0000000 0.0000000 0.0000000 0.0000000 461.4831 5.120765 10.00236 9.992436 5.129670 455.0363 105.7023 105.6141 7.779570 0.5385499
44.09583 463.7970 4.995700 0.0000000 0.0000000 0.0000000 0.0000000 0.0000000 463.7970 4.995700 10.01708 10.00918 5.004351 457.3106 106.7074 106.2401 7.760100 0.5317679
44.32916 466.1128 4.872642 0.0000000 0.0000000 0.0000000 0.0000000 0.0000000 466.1128 4.872642 10.01828 9.985999 4.880888 459.5785 108.0944 107.6062 7.797415 0.5201794
44.56250 468.4238 4.752912 0.0000000 0.0000000 0.0000000 0.0000000 0.0000000 468.4238 4.752912 9.992438 9.997324 4.760556 461.8521 108.2926 108.5899 7.832212 0.5027776
44.79584 470.7366 4.637994 0.0000000 0.0000000 0.0000000 0.0000000 0.0000000 470.7366 4.637994 10.00879 10.00436 4.644792 464.1238 109.1916 109.5543 7.852682 0.4786933
45.02917 473.0383 4.529504 0.0000000 0.0000000 0.0000000 0.0000000 0.0000000 473.0383 4.529504 9.996784 9.998303 4.535137 466.3784 111.1043 111.0617 7.870970 0.4473122
45.26250 475.3492 4.429055 0.0000000 0.0000000 0.0000000 0.0000000 0.0000000 475.3492 4.429055 10.00188 9.996759 4.433202 468.6373 112.0789 111.3795 7.898993 0.4089453
45.49584 477.6586 4.338628 0.0000000 0.0000000 0.0000000 0.0000000 0.0000000 477.6586 4.338628 10.02536 10.00191 4.340773 470.8820 113.2852 112.4893 7.918134 0.3633950
45.72917 479.9665 4.259324 0.0000000 0.0000000 0.0000000 0.0000000 0.0000000 479.9665 4.259324 9.995361 9.995422 4.259186 473.1248 114.2060 114.1339 7.948286 0.3106528
45.96250 482.2803 4.192884 0.0000000 0.0000000 0.0000000 0.0000000 0.0000000 482.2803 4.192884 9.969531 10.00221 4.189789 475.3866 114.7178 114.6469 7.951025 0.2559168
46.19584 484.5910 4.140303 0.0000000 0.0000000 0.0000000 0.0000000 0.0000000 484.5910 4.140303 10.01481 10.00054 4.133338 477.4771 114.5293 115.3253 7.938284 0.1999731
46.42916 486.8618 4.100579 0.0000000 0.0000000 0.0000000 0.0000000 0.0000000 486.8618 4.100579 9.994084 10.00180 4.089243 479.7859 118.2380 117.9540 8.006072 0.1509706
46.66250 489.1699 4.073646 0.0000000 0.0000000 0.0000000 0.0000000 0.0000000 489.1699 4.073646 9.999493 10.00784 4.057016 482.1348 118.7542 118.9457 8.040274 0.1116022
46.89583 491.4956 4.051511 0.0000000 0.0000000 0.0000000 0.0000000 0.0000000 491.4956 4.051511 10.01122 10.00636 4.034988 484.4856 119.7726 119.7985 8.059332 0.08469184
47.12916 493.8200 4.033609 0.0000000 0.0000000 0.0000000 0.0000000 0.0000000 493.8200 4.033609 10.00318 10.00075 4.021562 486.8096 120.4239 120.5565 8.050040 0.06378188
47.36250 496.1469 4.021592 0.0000000 0.0000000 0.0000000 0.0000000 0.0000000 496.1469 4.021592 9.987899 9.988868 4.013834 489.1240 121.5729 121.3603 8.063726 0.04435048
47.59583 498.4787 4.014130 0.0000000 0.0000000 0.0000000 0.0000000 0.0000000 498.4787 4.014130 10.01309 10.00262 4.009226 491.4310 121.6222 121.5987 8.067022 0.03152244
47.82916 500.7998 4.008517 0.0000000 0.0000000 0.0000000 0.0000000 0.0000000 500.7998 4.008517 10.01190 9.994991 4.004200 493.7250 122.8565 122.8894 8.108228 0.02844263
48.06250 503.1150 4.002225 0.0000000 0.0000000 0.0000000 0.0000000 0.0000000 503.1150 4.002225 9.993762 9.956322 3.996746 496.0185 123.5195 123.6846 8.123785 0.03425930
48.29584 505.4273 3.993446 0.0000000 0.0000000 0.0000000 0.0000000 0.0000000 505.4273 3.993446 10.00341 9.996197 3.985654 498.3078 124.8462 124.9279 8.126890 0.04672384
48.52917 507.7404 3.981174 0.0000000 0.0000000 0.0000000 0.0000000 0.0000000 507.7404 3.981174 10.01509 9.991320 3.970313 500.5964 125.7672 126.0359 8.173330 0.06454160
48.76250 510.0539 3.964233 0.0000000 0.0000000 0.0000000 0.0000000 0.0000000 510.0539 3.964234 9.990663 10.00701 3.949475 502.8878 127.0932 126.9183 8.178550 0.09170082
48.99584 512.3674 3.941140 0.0000000 0.0000000 0.0000000 0.0000000 0.0000000 512.3674 3.941140 10.00102 10.00414 3.922432 505.1763 128.0417 127.8906 8.208038 0.1291876
49.22917 514.6861 3.905181 0.0000000 0.0000000 0.0000000 0.0000000 0.0000000 514.6861 3.905181 10.02228 9.993406 3.888506 507.4735 128.8640 128.5032 8.210738 0.1695672
49.46250 516.9986 3.859710 0.0000000 0.0000000 0.0000000 0.0000000 0.0000000 516.9986 3.859710 9.986626 9.996324 3.847482 509.7617 130.0390 129.4322 8.246528 0.2040910
49.69584 519.3156 3.808542 0.0000000 0.0000000 0.0000000 0.0000000 0.0000000 519.3156 3.808542 10.00701 10.00101 3.799776 512.0552 130.7597 130.9308 8.246764 0.2262882
49.92916 521.6262 3.752994 0.0000000 0.0000000 0.0000000 0.0000000 0.0000000 521.6262 3.752994 10.33157 10.00340 3.746410 514.3436 132.1871 131.6676 8.276472 0.2361302
50.16250 523.9325 3.697366 0.0000000 0.0000000 0.0000000 0.0000000 0.0000000 523.9325 3.697366 10.24148 10.00040 3.690676 516.6234 133.1925 133.3757 8.293486 0.2402391
50.39583 526.2439 3.642150 0.0000000 0.0000000 0.0000000 0.0000000 0.0000000 526.2439 3.642150 9.989566 9.993805 3.636050 518.9168 134.2140 134.2424 8.320356 0.2433039
50.62916 528.5537 3.584679 0.0000000 0.0000000 0.0000000 0.0000000 0.0000000 528.5537 3.584679 9.998199 10.00472 3.579020 521.2070 135.7444 135.5137 8.335937 0.2495197
50.86250 530.8676 3.525652 0.0000000 0.0000000 0.0000000 0.0000000 0.0000000 530.8676 3.525652 10.00680 10.00358 3.520483 523.4998 136.4144 136.1846 8.361716 0.2549998
51.09583 533.1770 3.465891 0.0000000 0.0000000 0.0000000 0.0000000 0.0000000 533.1770 3.465891 9.983570 9.997160 3.461012 525.7898 137.6254 137.5055 8.369468 0.2599245
51.32917 535.4882 3.405152 0.0000000 0.0000000 0.0000000 0.0000000 0.0000000 535.4882 3.405152 9.979874 9.965747 3.400588 528.0820 138.7264 138.6417 8.374982 0.2653190
51.56250 537.7990 3.342615 0.0000000 0.0000000 0.0000000 0.0000000 0.0000000 537.7990 3.342615 10.00006 9.995041 3.338579 530.3743 139.8517 139.7332 8.411101 0.2719052
51.79583 540.1084 3.278954 0.0000000 0.0000000 0.0000000 0.0000000 0.0000000 540.1084 3.278954 10.00262 9.996941 3.275259 532.6624 141.1704 141.0044 8.430785 0.2798016
52.02917 542.4220 3.212946 0.0000000 0.0000000 0.0000000 0.0000000 0.0000000 542.4220 3.212946 10.00619 10.01900 3.209903 534.9560 142.1375 141.9719 8.460913 0.2898575
52.26250 544.7340 3.144478 0.0000000 0.0000000 0.0000000 0.0000000 0.0000000 544.7340 3.144478 10.00428 10.00208 3.142158 537.2470 143.1954 142.9160 8.459731 0.3027021
52.49584 547.0479 3.072622 0.0000000 0.0000000 0.0000000 0.0000000 0.0000000 547.0479 3.072622 9.999250 9.991871 3.071205 539.5368 144.1995 143.9635 8.499663 0.3191898
52.72918 549.3630 2.996688 0.0000000 0.0000000 0.0000000 0.0000000 0.0000000 549.3630 2.996688 10.00124 10.00222 2.996322 541.8289 145.1001 145.0672 8.501647 0.3393725
52.96250 551.6772 2.915250 0.0000000 0.0000000 0.0000000 0.0000000 0.0000000 551.6772 2.915250 10.00011 10.00208 2.916134 544.1206 146.0056 146.1637 8.523695 0.3629702
53.19584 553.9894 2.828008 0.0000000 0.0000000 0.0000000 0.0000000 0.0000000 553.9894 2.828008 10.00043 10.00983 2.830172 546.4082 147.4179 147.2067 8.535422 0.3883308
53.42916 556.3015 2.734482 0.0000000 0.0000000 0.0000000 0.0000000 0.0000000 556.3015 2.734482 9.991584 10.00138 2.737959 548.6952 148.4512 148.4246 8.542051 0.4136222
53.66250 558.6118 2.635296 0.0000000 0.0000000 0.0000000 0.0000000 0.0000000 558.6118 2.635296 10.00163 9.986676 2.639798 550.9821 149.7471 149.5155 8.550109 0.4370586
53.89582 560.9228 2.531024 0.0000000 0.0000000 0.0000000 0.0000000 0.0000000 560.9228 2.531024 9.996650 9.997375 2.536433 553.2739 150.7124 150.5909 8.607756 0.4580877
54.12916 563.2309 2.422258 0.0000000 0.0000000 0.0000000 0.0000000 0.0000000 563.2309 2.422258 9.990738 9.999478 2.428484 555.5664 151.9890 151.9980 8.605704 0.4772981
54.36250 565.5403 2.309328 0.0000000 0.0000000 0.0000000 0.0000000 0.0000000 565.5403 2.309328 9.980228 9.955372 2.316226 557.8582 153.0605 153.2440 8.625976 0.4951612
54.59582 567.8467 2.192102 0.0000000 0.0000000 0.0000000 0.0000000 0.0000000 567.8467 2.192102 10.00254 10.00079 2.199732 560.1534 154.5239 154.1475 8.652778 0.5122187
54.82918 570.1557 2.071515 0.0000000 0.0000000 0.0000000 0.0000000 0.0000000 570.1557 2.071515 9.979540 9.992934 2.079652 562.4494 155.4926 155.6243 8.669402 0.5309834
55.06250 572.4646 1.946523 0.0000000 0.0000000 0.0000000 0.0000000 0.0000000 572.4646 1.946523 10.01316 9.991045 1.955381 564.7511 156.8469 156.7851 8.682776 0.5501297
55.29582 574.7759 1.814451 0.0000000 0.0000000 0.0000000 0.0000000 0.0000000 574.7759 1.814451 10.01313 10.00804 1.824596 567.0548 158.4178 157.9299 8.669266 0.5638556
55.52918 577.0758 1.682777 0.0000000 0.0000000 0.0000000 0.0000000 0.0000000 577.0758 1.682777 9.999379 9.999426 1.692747 569.3525 159.1089 159.0754 8.722099 0.5639548
55.76250 579.3687 1.552463 0.0000000 0.0000000 0.0000000 0.0000000 0.0000000 579.3687 1.552463 10.24990 9.992679 1.561610 571.6495 160.9370 160.7399 8.757758 0.5551925
55.99584 581.6721 1.426989 0.0000000 0.0000000 0.0000000 0.0000000 0.0000000 581.6721 1.426989 9.976334 9.981965 1.435766 573.9610 161.8999 162.1428 8.777465 0.5490520
56.22918 583.9802 1.299316 0.0000000 0.0000000 0.0000000 0.0000000 0.0000000 583.9802 1.299316 10.04451 10.01252 1.308589 576.2782 163.7890 163.3086 8.778038 0.5435873
56.46250 586.2818 1.171853 0.0000000 0.0000000 0.0000000 0.0000000 0.0000000 586.2818 1.171853 9.991766 9.999591 1.181062 578.5937 165.0154 164.5478 8.808782 0.5316265
56.69584 588.5653 1.053036 0.0000000 0.0000000 0.0000000 0.0000000 0.0000000 588.5653 1.053036 10.08132 9.994826 1.060375 580.8871 166.4632 166.5374 8.854644 0.5155272
56.92916 590.8836 0.9368019 0.0000000 0.0000000 0.0000000 0.0000000 0.0000000 590.8836 0.9368019 9.955124 10.00004 0.9438492 583.2128 167.2456 167.1994 8.856719 0.4987016
57.16250 593.2030 0.8173920 0.0000000 0.0000000 0.0000000 0.0000000 0.0000000 593.2030 0.8173920 9.991078 9.995895 0.8262528 585.5488 169.0994 168.0759 8.847113 0.4771646
57.39582 595.4535 0.7131836 0.0000000 0.0000000 0.0000000 0.0000000 0.0000000 595.4535 0.7131836 9.988482 10.00078 0.7179047 587.7891 171.6984 171.4711 8.916991 0.4505185
57.62916 597.7702 0.6143379 0.0000000 0.0000000 0.0000000 0.0000000 0.0000000 597.7702 0.6143379 9.988884 9.999939 0.6183709 590.1020 171.8436 172.4286 8.921622 0.4264204
57.86250 600.0705 0.5192306 0.0000000 0.0000000 0.0000000 0.0000000 0.0000000 600.0705 0.5192306 9.996282 10.00047 0.5224541 592.3921 173.5830 173.3083 8.956428 0.4169114
58.09582 602.3758 0.4177276 0.0000000 0.0000000 0.0000000 0.0000000 0.0000000 602.3758 0.4177276 9.961934 9.998566 0.4225395 594.6793 176.5828 176.5382 9.001984 0.3761761
58.32918 604.7055 0.3233826 0.0000000 0.0000000 0.0000000 0.0000000 0.0000000 604.7055 0.3233826 9.986832 10.00075 0.3292679 596.9949 178.9541 175.6500 9.003730 0.2890673
58.56250 606.8719 0.2888367 0.0000000 0.0000000 0.0000000 0.0000000 0.0000000 606.8719 0.2888367 10.00973 9.998039 0.2782387 599.1320 179.1501 178.0504 9.004905 0.1927414
58.79582 609.1550 0.2496231 0.0000000 0.0000000 0.0000000 0.0000000 0.0000000 609.1550 0.2496231 10.00010 10.00013 0.2394768 601.4109 182.2372 189.1475 9.092681 0.1086969
59.02918 611.5056 0.2364525 0.0000000 0.0000000 0.0000000 0.0000000 0.0000000 611.5056 0.2364525 10.03972 9.991691 0.2269386 603.7798 182.0284 181.8963 9.048141 0.06753936
59.26250 613.8214 0.2269165 0.0000000 0.0000000 0.0000000 0.0000000 0.0000000 613.8214 0.2269165 10.00635 10.00113 0.2209740 606.0910 182.9836 182.9733 9.087890 0.03222262
59.49584 616.1257 0.2217468 0.0000000 0.0000000 0.0000000 0.0000000 0.0000000 616.1257 0.2217468 9.999936 9.995804 0.2187454 608.3876 184.4602 184.5049 9.110672 0.01823678
59.72918 618.4316 0.2194367 0.0000000 0.0000000 0.0000000 0.0000000 0.0000000 618.4316 0.2194366 9.993225 10.00119 0.2181786 610.6800 185.7200 185.5526 9.131324 .008773806
59.96250 620.7328 0.2184189 0.0000000 0.0000000 0.0000000 0.0000000 0.0000000 620.7328 0.2184189 9.974251 10.08694 0.2178840 612.9710 187.2080 186.9384 9.133124 .004094937
60.19584 623.0348 0.2179184 0.0000000 0.0000000 0.0000000 0.0000000 0.0000000 623.0348 0.2179184 10.00079 9.992228 0.2176110 615.2584 188.7040 188.2351 9.173972 .002299265
60.42916 625.3357 0.2175056 0.0000000 0.0000000 0.0000000 0.0000000 0.0000000 625.3357 0.2175056 9.995882 10.00184 0.2172249 617.5486 189.9838 190.0056 9.183311 .001850171
60.66250 627.6316 0.2171120 0.0000000 0.0000000 0.0000000 0.0000000 0.0000000 627.6316 0.2171120 9.986176 9.987843 0.2168160 619.8322 191.8215 191.1536 9.203994 .001927729
60.89582 629.9336 0.2166481 0.0000000 0.0000000 0.0000000 0.0000000 0.0000000 629.9336 0.2166481 9.998656 10.00524 0.2162392 622.1260 192.8911 192.8308 9.188118 .002208468
61.12916 632.2324 0.2160858 0.0000000 0.0000000 0.0000000 0.0000000 0.0000000 632.2324 0.2160858 10.01720 9.999571 0.2155159 624.4134 194.7006 194.3444 9.211776 .002400736
61.36250 634.5326 0.2154846 0.0000000 0.0000000 0.0000000 0.0000000 0.0000000 634.5326 0.2154846 10.28959 9.995556 0.2150261 626.7020 196.0078 195.8053 9.268790 .002484840
61.59582 636.8321 0.2149430 0.0000000 0.0000000 0.0000000 0.0000000 0.0000000 636.8321 0.2149430 9.991924 9.996622 0.2144912 628.9932 197.3434 197.1742 9.279228 .002356502
61.82918 639.1318 0.2143745 0.0000000 0.0000000 0.0000000 0.0000000 0.0000000 639.1318 0.2143745 9.988309 9.908192 0.2140190 631.2805 198.6592 198.9213 9.304511 .002111603
62.06250 641.4273 0.2139496 0.0000000 0.0000000 0.0000000 0.0000000 0.0000000 641.4273 0.2139496 10.00509 10.00079 0.2137688 633.5706 200.4944 200.4863 9.313003 .001876453
62.29582 643.7236 0.2135696 0.0000000 0.0000000 0.0000000 0.0000000 0.0000000 643.7236 0.2135696 10.00157 9.998157 0.2132980 635.8603 202.3216 201.8266 9.332108 .001636840
62.52918 646.0224 0.2131485 0.0000000 0.0000000 0.0000000 0.0000000 0.0000000 646.0224 0.2131485 9.991656 9.995220 0.2129456 638.1488 203.5721 203.4421 9.358093 .001455152
62.76250 648.3194 0.2128464 0.0000000 0.0000000 0.0000000 0.0000000 0.0000000 648.3194 0.2128464 10.02357 9.979820 0.2126084 640.4376 205.2008 204.9731 9.362121 .001254201
62.99584 650.6176 0.2126144 0.0000000 0.0000000 0.0000000 0.0000000 0.0000000 650.6176 0.2126144 10.00364 10.00697 0.2123665 642.7283 206.6554 206.5258 9.385489 .001026373
63.22918 652.9141 0.2123604 0.0000000 0.0000000 0.0000000 0.0000000 0.0000000 652.9141 0.2123604 10.01397 10.00243 0.2121864 645.0193 208.2287 208.0794 9.405394 8.60699E-4
63.46250 655.2092 0.2122352 0.0000000 0.0000000 0.0000000 0.0000000 0.0000000 655.2092 0.2122352 10.00619 10.00160 0.2121300 647.3076 209.9512 209.9024 9.424422 7.38633E-4
63.69584 657.5043 0.2120445 0.0000000 0.0000000 0.0000000 0.0000000 0.0000000 657.5043 0.2120445 10.00117 9.995156 0.2118866 649.5955 211.5447 211.0931 9.451415 6.05522E-4
63.92916 659.8016 0.2119179 0.0000000 0.0000000 0.0000000 0.0000000 0.0000000 659.8016 0.2119179 10.00850 9.997538 0.2118812 651.8863 213.0280 212.6463 9.483719 4.51067E-4
64.16250 662.0978 0.2118385 0.0000000 0.0000000 0.0000000 0.0000000 0.0000000 662.0978 0.2118385 10.00884 10.00308 0.2118019 654.1755 214.5433 214.2842 9.484504 2.58257E-4
64.39584 664.3934 0.2118148 0.0000000 0.0000000 0.0000000 0.0000000 0.0000000 664.3934 0.2118149 9.983844 9.962274 0.2117554 656.4670 215.9846 215.9527 9.507758 1.36173E-4
64.62916 666.6898 0.2117775 0.0000000 0.0000000 0.0000000 0.0000000 0.0000000 666.6898 0.2117775 9.998749 10.02419 0.2117058 658.7536 217.5227 217.5634 9.526062 7.11772E-5
64.86250 668.9832 0.2117760 0.0000000 0.0000000 0.0000000 0.0000000 0.0000000 668.9832 0.2117760 10.22210 10.00025 0.2117157 661.0421 219.2794 219.1291 9.546676 6.45955E-6
65.09582 671.2781 0.2117844 0.0000000 0.0000000 0.0000000 0.0000000 0.0000000 671.2781 0.2117844 9.996606 10.00095 0.2118256 663.3300 220.8034 221.0903 9.577590 -1.1312E-4
65.32918 673.5732 0.2118592 0.0000000 0.0000000 0.0000000 0.0000000 0.0000000 673.5732 0.2118592 9.988739 10.00036 0.2119720 665.6205 222.2700 222.4362 9.595848 -2.8810E-4
65.56250 675.8632 0.2118797 0.0000000 0.0000000 0.0000000 0.0000000 0.0000000 675.8632 0.2118797 9.990200 9.998407 0.2119377 667.9082 224.5333 224.1148 9.614791 -3.8703E-4
65.79582 678.1582 0.2120346 0.0000000 0.0000000 0.0000000 0.0000000 0.0000000 678.1582 0.2120346 10.00729 10.00436 0.2120575 670.1939 226.1324 225.6519 9.630188 -3.5720E-4
66.02918 680.4509 0.2121147 0.0000000 0.0000000 0.0000000 0.0000000 0.0000000 680.4509 0.2121147 9.986716 9.997321 0.2122368 672.4840 227.7837 227.4006 9.631843 -2.8866E-4
66.26250 682.7450 0.2121430 0.0000000 0.0000000 0.0000000 0.0000000 0.0000000 682.7450 0.2121430 10.01603 9.992720 0.2121506 674.7703 229.2242 229.1969 9.670875 -2.0905E-4
66.49584 685.0360 0.2121658 0.0000000 0.0000000 0.0000000 0.0000000 0.0000000 685.0360 0.2121658 9.982994 9.993934 0.2121696 677.0578 231.1216 230.8488 9.691993 -2.0106E-4
66.72916 687.3282 0.2122726 0.0000000 0.0000000 0.0000000 0.0000000 0.0000000 687.3282 0.2122726 9.994298 9.999736 0.2124222 679.3460 232.6962 232.6038 9.705382 -2.6559E-4
66.96250 689.6202 0.2122276 0.0000000 0.0000000 0.0000000 0.0000000 0.0000000 689.6202 0.2122276 9.985794 10.00345 0.2122620 681.6325 234.4570 234.3527 9.735976 -3.5784E-4
67.19582 691.9132 0.2123054 0.0000000 0.0000000 0.0000000 0.0000000 0.0000000 691.9132 0.2123054 10.00137 9.999356 0.2120041 683.9200 236.0848 236.1760 9.749618 -3.9285E-4
67.42918 694.2051 0.2125168 0.0000000 0.0000000 0.0000000 0.0000000 0.0000000 694.2051 0.2125168 10.00301 10.00258 0.2126389 686.2043 237.8444 237.7100 9.774848 -5.0060E-4
67.66250 696.4802 0.2126122 0.0000000 0.0000000 0.0000000 0.0000000 0.0000000 696.4802 0.2126122 9.998750 9.993462 0.2126610 688.4759 239.5197 239.0093 9.795516 -5.3277E-4
67.89584 698.7280 0.2127518 0.0000000 0.0000000 0.0000000 0.0000000 0.0000000 698.7280 0.2127518 9.980931 9.993899 0.2127899 690.7228 241.3205 240.8942 9.814506 -5.2974E-4
67.98750 699.6116 0.2127564 0.0000000 0.0000000 0.0000000 0.0000000 0.0000000 699.6116 0.2127564 9.990218 9.998910 0.2127998 691.6038 241.8234 241.6670 9.826072 -5.7526E-4