File: Polymers lab/2/TGA/PME2019 G1 cemento P2.txt
6.66667E-4 22.68768 13.95734 0.0000000 0.0000000 0.0000000 0.0000000 0.0000000 22.68768 13.95734 9.996056 9.992657 13.95762 22.76786 28.36909 0.0000000 1.181283 -6.2298E-4
0.2291667 23.18573 13.95738 0.0000000 0.0000000 0.0000000 0.0000000 0.0000000 23.18573 13.95738 10.01103 10.00252 13.95786 23.24953 21.93610 21.08280 4.439570 -5.9151E-4
0.4625000 25.56748 13.95776 0.0000000 0.0000000 0.0000000 0.0000000 0.0000000 25.56748 13.95776 9.983949 9.998253 13.95825 25.57369 16.12906 17.47750 4.265110 -1.9422E-4
0.6958332 28.27710 13.95791 0.0000000 0.0000000 0.0000000 0.0000000 0.0000000 28.27710 13.95791 9.993062 10.22138 13.95784 28.20194 15.03658 14.60210 4.011592 6.10969E-4
0.9291668 30.66772 13.95742 0.0000000 0.0000000 0.0000000 0.0000000 0.0000000 30.66772 13.95742 10.02413 10.00323 13.95697 30.51780 14.68532 15.27460 4.068980 .001487464
1.162500 33.00494 13.95681 0.0000000 0.0000000 0.0000000 0.0000000 0.0000000 33.00494 13.95681 9.997662 10.00776 13.95630 32.78644 14.91996 15.26090 4.125293 .002027093
1.395834 35.38566 13.95606 0.0000000 0.0000000 0.0000000 0.0000000 0.0000000 35.38566 13.95606 10.01179 9.991798 13.95549 35.09986 14.43005 15.01190 4.096347 .002341822
1.629167 37.76324 13.95525 0.0000000 0.0000000 0.0000000 0.0000000 0.0000000 37.76324 13.95525 9.994953 10.01535 13.95459 37.41120 14.65912 14.36270 4.046466 .002726044
1.862500 40.12728 13.95431 0.0000000 0.0000000 0.0000000 0.0000000 0.0000000 40.12728 13.95431 10.01448 10.00459 13.95346 39.71338 14.68602 14.15290 4.049617 .003184815
2.095833 42.49188 13.95315 0.0000000 0.0000000 0.0000000 0.0000000 0.0000000 42.49188 13.95315 10.03797 10.00484 13.95222 42.01341 13.90795 14.63890 4.115680 .003636616
2.329166 44.84033 13.95189 0.0000000 0.0000000 0.0000000 0.0000000 0.0000000 44.84033 13.95189 9.995301 9.995636 13.95083 44.30097 14.97750 14.71890 4.057506 .003992206
2.562500 47.19207 13.95052 0.0000000 0.0000000 0.0000000 0.0000000 0.0000000 47.19207 13.95052 10.02433 9.993715 13.94942 46.59117 14.82269 15.05080 4.085742 .004279574
2.795834 49.54066 13.94910 0.0000000 0.0000000 0.0000000 0.0000000 0.0000000 49.54066 13.94910 10.00880 9.996709 13.94798 48.88010 14.98544 15.35430 4.127002 .004568209
3.029167 51.88034 13.94751 0.0000000 0.0000000 0.0000000 0.0000000 0.0000000 51.88034 13.94751 10.01597 10.00220 13.94626 51.15926 15.97685 15.40270 4.149509 .004895834
3.262500 54.22514 13.94588 0.0000000 0.0000000 0.0000000 0.0000000 0.0000000 54.22514 13.94588 9.979126 10.00414 13.94454 53.44472 15.71438 16.02320 4.226093 .005239338
3.495834 56.56560 13.94411 0.0000000 0.0000000 0.0000000 0.0000000 0.0000000 56.56560 13.94411 9.993656 9.991150 13.94269 55.73080 15.86081 16.26400 4.223071 .005588433
3.729167 58.90192 13.94224 0.0000000 0.0000000 0.0000000 0.0000000 0.0000000 58.90192 13.94224 9.991291 9.996538 13.94075 58.00865 16.45420 16.67750 4.248752 .005952774
3.962500 61.23910 13.94022 0.0000000 0.0000000 0.0000000 0.0000000 0.0000000 61.23910 13.94022 9.998141 10.00392 13.93863 60.28588 16.54356 16.60040 4.273616 .006316969
4.195833 63.57541 13.93811 0.0000000 0.0000000 0.0000000 0.0000000 0.0000000 63.57541 13.93811 10.01197 10.00469 13.93640 62.56844 17.02914 16.71300 4.325992 .006656397
4.429167 65.90999 13.93589 0.0000000 0.0000000 0.0000000 0.0000000 0.0000000 65.90999 13.93589 10.01628 10.01703 13.93414 64.84625 17.26895 17.34170 4.355594 .006984095
4.662500 68.24389 13.93358 0.0000000 0.0000000 0.0000000 0.0000000 0.0000000 68.24389 13.93358 10.01339 9.997280 13.93174 67.12615 17.62480 17.66580 4.391780 .007297574
4.895834 70.57626 13.93114 0.0000000 0.0000000 0.0000000 0.0000000 0.0000000 70.57626 13.93114 9.992453 9.998059 13.92927 69.40508 18.24318 17.83530 4.393832 .007644766
5.129166 72.91003 13.92861 0.0000000 0.0000000 0.0000000 0.0000000 0.0000000 72.91003 13.92861 10.01116 10.01916 13.92666 71.68388 17.91800 18.40080 4.451862 .007993276
5.362500 75.23960 13.92593 0.0000000 0.0000000 0.0000000 0.0000000 0.0000000 75.23960 13.92593 10.00856 10.00872 13.92384 73.96100 18.89756 18.91940 4.455425 .008341569
5.595832 77.57095 13.92318 0.0000000 0.0000000 0.0000000 0.0000000 0.0000000 77.57095 13.92318 9.990994 10.00379 13.92098 76.23801 19.06556 19.19630 4.534572 .008707397
5.829168 79.90278 13.92028 0.0000000 0.0000000 0.0000000 0.0000000 0.0000000 79.90278 13.92028 10.07964 9.995543 13.91799 78.51441 19.57376 19.26680 4.513790 .009032899
6.062500 82.23212 13.91727 0.0000000 0.0000000 0.0000000 0.0000000 0.0000000 82.23212 13.91727 10.00464 10.00034 13.91493 80.79206 19.65006 19.92500 4.588848 .009358194
6.295832 84.56332 13.91420 0.0000000 0.0000000 0.0000000 0.0000000 0.0000000 84.56332 13.91420 10.01158 10.00768 13.91183 83.07144 19.98625 20.25570 4.608089 .009715005
6.529166 86.89106 13.91101 0.0000000 0.0000000 0.0000000 0.0000000 0.0000000 86.89106 13.91100 10.01848 9.898709 13.90848 85.34692 20.45654 20.92560 4.628254 0.01016331
6.762500 89.21957 13.90758 0.0000000 0.0000000 0.0000000 0.0000000 0.0000000 89.21957 13.90758 10.32299 10.00705 13.90486 87.62275 21.13691 20.58400 4.636493 0.01062790
6.995834 91.55016 13.90408 0.0000000 0.0000000 0.0000000 0.0000000 0.0000000 91.55016 13.90408 9.987568 9.994482 13.90136 89.90241 20.95845 21.32930 4.681500 0.01104856
7.229166 93.87772 13.90041 0.0000000 0.0000000 0.0000000 0.0000000 0.0000000 93.87772 13.90041 9.997085 10.00302 13.89758 92.17947 21.62785 21.40350 4.718036 0.01144668
7.462500 96.20764 13.89664 0.0000000 0.0000000 0.0000000 0.0000000 0.0000000 96.20764 13.89664 10.05674 10.01208 13.89360 94.45859 21.67318 21.70470 4.720531 0.01189621
7.695832 98.53380 13.89269 0.0000000 0.0000000 0.0000000 0.0000000 0.0000000 98.53380 13.89269 9.971649 9.992222 13.88955 96.73506 22.28736 22.09700 4.765704 0.01238411
7.929168 100.8648 13.88860 0.0000000 0.0000000 0.0000000 0.0000000 0.0000000 100.8648 13.88860 10.00386 9.996600 13.88540 99.01656 22.05738 22.61920 4.780689 0.01296012
8.162500 103.1899 13.88428 0.0000000 0.0000000 0.0000000 0.0000000 0.0000000 103.1899 13.88428 9.984016 10.00555 13.88074 101.2913 22.85300 23.04710 4.808444 0.01361978
8.395832 105.5165 13.87976 0.0000000 0.0000000 0.0000000 0.0000000 0.0000000 105.5165 13.87976 9.965744 10.00320 13.87615 103.5679 23.43027 23.71290 4.841068 0.01427373
8.629166 107.8452 13.87498 0.0000000 0.0000000 0.0000000 0.0000000 0.0000000 107.8452 13.87498 9.997392 9.991241 13.87128 105.8515 23.39545 23.90670 4.880466 0.01490976
8.862500 110.1743 13.87010 0.0000000 0.0000000 0.0000000 0.0000000 0.0000000 110.1743 13.87010 9.989828 9.992874 13.86628 108.1322 23.78550 23.98860 4.887760 0.01556249
9.095834 112.4974 13.86489 0.0000000 0.0000000 0.0000000 0.0000000 0.0000000 112.4974 13.86489 10.26172 10.21108 13.86075 110.4073 24.87532 24.29570 4.910152 0.01624127
9.329166 114.8258 13.85951 0.0000000 0.0000000 0.0000000 0.0000000 0.0000000 114.8258 13.85951 10.00248 9.999726 13.85522 112.6876 24.75792 24.62550 4.931125 0.01693996
9.562500 117.1545 13.85390 0.0000000 0.0000000 0.0000000 0.0000000 0.0000000 117.1545 13.85390 9.998892 9.997720 13.84948 114.9679 24.78776 25.21350 4.966731 0.01752396
9.795834 119.4840 13.84809 0.0000000 0.0000000 0.0000000 0.0000000 0.0000000 119.4840 13.84809 9.998562 9.991608 13.84360 117.2516 24.83664 25.51760 4.978916 0.01813330
10.02917 121.8057 13.84215 0.0000000 0.0000000 0.0000000 0.0000000 0.0000000 121.8057 13.84215 10.00859 10.00560 13.83743 119.5288 25.89056 25.98690 5.002934 0.01875363
10.26250 124.1369 13.83592 0.0000000 0.0000000 0.0000000 0.0000000 0.0000000 124.1369 13.83592 9.985078 9.977652 13.83102 121.8135 25.72434 25.68730 5.025944 0.01938164
10.49584 126.4596 13.82952 0.0000000 0.0000000 0.0000000 0.0000000 0.0000000 126.4596 13.82952 10.00071 10.00104 13.82450 124.0939 26.83976 26.54140 5.089566 0.02003124
10.72917 128.7894 13.82296 0.0000000 0.0000000 0.0000000 0.0000000 0.0000000 128.7894 13.82296 9.999024 9.992840 13.81782 126.3771 26.73661 27.10990 5.075680 0.02068403
10.96250 131.1149 13.81610 0.0000000 0.0000000 0.0000000 0.0000000 0.0000000 131.1149 13.81610 10.01705 10.00087 13.81070 128.6593 27.05141 27.39730 5.107395 0.02139973
11.19583 133.4394 13.80905 0.0000000 0.0000000 0.0000000 0.0000000 0.0000000 133.4394 13.80905 9.998268 10.00247 13.80346 130.9402 27.93290 27.58240 5.128582 0.02214493
11.42917 135.7651 13.80174 0.0000000 0.0000000 0.0000000 0.0000000 0.0000000 135.7651 13.80174 10.00606 9.997074 13.79602 133.2219 28.23408 28.05260 5.175183 0.02285012
11.66250 138.0951 13.79419 0.0000000 0.0000000 0.0000000 0.0000000 0.0000000 138.0951 13.79419 10.06425 9.977960 13.78823 135.5079 28.12468 28.26820 5.168278 0.02358761
11.89583 140.4192 13.78644 0.0000000 0.0000000 0.0000000 0.0000000 0.0000000 140.4192 13.78644 9.992049 9.991736 13.78027 137.7869 28.75946 28.56810 5.200039 0.02440148
12.12916 142.7453 13.77839 0.0000000 0.0000000 0.0000000 0.0000000 0.0000000 142.7453 13.77839 9.989837 9.993375 13.77199 140.0702 29.29331 28.93770 5.237553 0.02534280
12.36250 145.0739 13.77000 0.0000000 0.0000000 0.0000000 0.0000000 0.0000000 145.0739 13.77000 9.999828 10.00514 13.76339 142.3548 29.24022 29.49780 5.248257 0.02639461
12.59584 147.3997 13.76126 0.0000000 0.0000000 0.0000000 0.0000000 0.0000000 147.3997 13.76126 9.989532 10.02572 13.75435 144.6385 29.65010 29.84130 5.263889 0.02750192
12.82916 149.7255 13.75218 0.0000000 0.0000000 0.0000000 0.0000000 0.0000000 149.7255 13.75218 9.986085 9.994574 13.74509 146.9211 30.25120 30.09120 5.283794 0.02887886
13.06250 152.0484 13.74264 0.0000000 0.0000000 0.0000000 0.0000000 0.0000000 152.0484 13.74264 9.998280 10.00019 13.73501 149.2029 30.81250 30.55650 5.312924 0.03090088
13.29584 154.3806 13.73230 0.0000000 0.0000000 0.0000000 0.0000000 0.0000000 154.3806 13.73230 9.991109 9.996482 13.72388 151.4920 30.63372 30.84270 5.328480 0.03373987
13.52916 156.7028 13.72085 0.0000000 0.0000000 0.0000000 0.0000000 0.0000000 156.7028 13.72085 10.00920 10.00116 13.71156 153.7760 31.77422 31.22160 5.372974 0.03694870
13.76250 159.0318 13.70822 0.0000000 0.0000000 0.0000000 0.0000000 0.0000000 159.0318 13.70822 9.947144 9.998666 13.69810 156.0647 31.46830 31.75790 5.392864 0.03962863
13.99583 161.3581 13.69476 0.0000000 0.0000000 0.0000000 0.0000000 0.0000000 161.3581 13.69476 9.995451 9.988555 13.68414 158.3503 32.00246 31.79430 5.415874 0.04087483
14.22917 163.6842 13.68125 0.0000000 0.0000000 0.0000000 0.0000000 0.0000000 163.6842 13.68125 9.986622 10.00808 13.67087 160.6348 32.45383 32.53020 5.429905 0.04020675
14.46250 166.0091 13.66828 0.0000000 0.0000000 0.0000000 0.0000000 0.0000000 166.0091 13.66828 9.993236 10.00891 13.65845 162.9194 33.12011 32.67370 5.440037 0.03783437
14.69583 168.3376 13.65645 0.0000000 0.0000000 0.0000000 0.0000000 0.0000000 168.3376 13.65645 9.980494 9.943676 13.64760 165.2086 33.08195 33.12790 5.473149 0.03439028
14.92917 170.6612 13.64590 0.0000000 0.0000000 0.0000000 0.0000000 0.0000000 170.6612 13.64590 10.01665 10.01082 13.63806 167.4909 33.83286 33.65100 5.483051 0.03060719
15.16250 172.9914 13.63664 0.0000000 0.0000000 0.0000000 0.0000000 0.0000000 172.9914 13.63664 9.997384 10.00609 13.62975 169.7802 33.68445 33.89560 5.503986 0.02700003
15.39583 175.3162 13.62845 0.0000000 0.0000000 0.0000000 0.0000000 0.0000000 175.3162 13.62845 9.997611 10.00093 13.62238 172.0670 34.32219 34.31190 5.512539 0.02381262
15.62917 177.6414 13.62124 0.0000000 0.0000000 0.0000000 0.0000000 0.0000000 177.6414 13.62124 10.01178 9.964718 13.61586 174.3493 34.77778 34.77040 5.542606 0.02109167
15.86250 179.9686 13.61486 0.0000000 0.0000000 0.0000000 0.0000000 0.0000000 179.9686 13.61486 9.987238 9.959201 13.61004 176.6382 35.17950 35.35480 5.565952 0.01880174
16.09583 182.2984 13.60914 0.0000000 0.0000000 0.0000000 0.0000000 0.0000000 182.2984 13.60914 10.00487 9.999462 13.60489 178.9338 35.09500 35.44840 5.585903 0.01699319
16.32916 184.6235 13.60392 0.0000000 0.0000000 0.0000000 0.0000000 0.0000000 184.6235 13.60392 10.01169 9.986101 13.59998 181.2194 35.75412 35.95700 5.591855 0.01560250
16.56250 186.9500 13.59908 0.0000000 0.0000000 0.0000000 0.0000000 0.0000000 186.9500 13.59908 10.24777 10.00627 13.59545 183.5063 36.19646 36.24850 5.612256 0.01452894
16.79584 189.2762 13.59452 0.0000000 0.0000000 0.0000000 0.0000000 0.0000000 189.2762 13.59452 10.00383 10.00107 13.59104 185.7954 36.41172 36.85680 5.649319 0.01372594
17.02917 191.6013 13.59022 0.0000000 0.0000000 0.0000000 0.0000000 0.0000000 191.6013 13.59022 10.00594 9.999156 13.58686 188.0854 36.94050 37.17320 5.672451 0.01317897
17.26250 193.9261 13.58605 0.0000000 0.0000000 0.0000000 0.0000000 0.0000000 193.9261 13.58605 9.983449 9.998184 13.58294 190.3750 37.74602 37.29020 5.698605 0.01283934
17.49583 196.2575 13.58187 0.0000000 0.0000000 0.0000000 0.0000000 0.0000000 196.2575 13.58187 9.998297 10.00123 13.57869 192.6678 37.35148 37.82210 5.692494 0.01269220
17.72916 198.5812 13.57784 0.0000000 0.0000000 0.0000000 0.0000000 0.0000000 198.5812 13.57784 9.993188 10.00090 13.57469 194.9539 38.28596 38.23880 5.717885 0.01273895
17.96250 200.9080 13.57367 0.0000000 0.0000000 0.0000000 0.0000000 0.0000000 200.9080 13.57367 9.986401 9.945261 13.57040 197.2461 38.51309 38.76430 5.739636 0.01292073
18.19583 203.2338 13.56944 0.0000000 0.0000000 0.0000000 0.0000000 0.0000000 203.2338 13.56944 9.926297 10.00842 13.56612 199.5355 39.04806 39.16360 5.795354 0.01331298
18.42917 205.5622 13.56510 0.0000000 0.0000000 0.0000000 0.0000000 0.0000000 205.5622 13.56510 9.999856 9.997950 13.56159 201.8284 39.16244 39.68410 5.783016 0.01383986
18.66250 207.8858 13.56047 0.0000000 0.0000000 0.0000000 0.0000000 0.0000000 207.8858 13.56047 9.991766 10.01628 13.55681 204.1157 39.94328 40.03430 5.800198 0.01450282
18.89584 210.2130 13.55566 0.0000000 0.0000000 0.0000000 0.0000000 0.0000000 210.2130 13.55566 9.997794 10.00799 13.55185 206.4073 40.38339 40.26480 5.817143 0.01541069
19.12917 212.5377 13.55058 0.0000000 0.0000000 0.0000000 0.0000000 0.0000000 212.5377 13.55058 9.997438 9.998264 13.54644 208.6969 41.10193 40.87560 5.842419 0.01657274
19.36250 214.8664 13.54495 0.0000000 0.0000000 0.0000000 0.0000000 0.0000000 214.8664 13.54495 10.01205 9.996728 13.54046 210.9914 41.25816 41.18490 5.853207 0.01807047
19.59583 217.1927 13.53887 0.0000000 0.0000000 0.0000000 0.0000000 0.0000000 217.1927 13.53887 9.987384 10.00232 13.53398 213.2833 41.51006 41.56190 5.871304 0.01988372
19.82916 219.5202 13.53216 0.0000000 0.0000000 0.0000000 0.0000000 0.0000000 219.5202 13.53216 9.985375 10.00323 13.52664 215.5760 41.86890 42.09160 5.903492 0.02199937
20.06250 221.8425 13.52464 0.0000000 0.0000000 0.0000000 0.0000000 0.0000000 221.8425 13.52464 9.989649 9.949478 13.51854 217.8635 42.85900 42.78110 5.924679 0.02453938
20.29584 224.1705 13.51631 0.0000000 0.0000000 0.0000000 0.0000000 0.0000000 224.1705 13.51631 10.00747 9.995351 13.50950 220.1564 42.96434 42.93290 5.944859 0.02749678
20.52917 226.4962 13.50692 0.0000000 0.0000000 0.0000000 0.0000000 0.0000000 226.4962 13.50692 10.00032 10.00692 13.49931 222.4497 43.58510 43.71220 5.956196 0.03107449
20.76250 228.8236 13.49628 0.0000000 0.0000000 0.0000000 0.0000000 0.0000000 228.8236 13.49628 10.34316 9.995819 13.48739 224.7432 43.87252 43.79330 5.975079 0.03564407
20.99583 231.1518 13.48408 0.0000000 0.0000000 0.0000000 0.0000000 0.0000000 231.1518 13.48408 9.996344 9.999882 13.47393 227.0360 43.96746 44.47300 5.993694 0.04159160
21.22916 233.4759 13.46966 0.0000000 0.0000000 0.0000000 0.0000000 0.0000000 233.4759 13.46966 9.996651 10.23860 13.45774 229.3271 44.88904 44.83530 6.001454 0.04953253
21.46250 235.8031 13.45238 0.0000000 0.0000000 0.0000000 0.0000000 0.0000000 235.8031 13.45238 10.06867 9.999035 13.43775 231.6199 45.10485 45.26290 6.043652 0.05960930
21.69583 238.1290 13.43146 0.0000000 0.0000000 0.0000000 0.0000000 0.0000000 238.1290 13.43146 9.996491 9.991691 13.41424 233.9122 45.59719 45.57790 6.069920 0.07441031
21.92917 240.4538 13.40603 0.0000000 0.0000000 0.0000000 0.0000000 0.0000000 240.4538 13.40603 9.996538 9.984782 13.38636 236.2010 46.31071 46.10070 6.055980 0.1025275
22.16250 242.7808 13.37150 0.0000000 0.0000000 0.0000000 0.0000000 0.0000000 242.7808 13.37150 9.993951 9.999624 13.35372 238.4933 46.69258 46.31210 6.070934 0.1198750
22.39584 245.1082 13.31879 0.0000000 0.0000000 0.0000000 0.0000000 0.0000000 245.1082 13.31879 9.990455 9.983859 13.30749 240.7878 46.98537 46.79910 6.081172 0.1238937
22.62917 247.4325 13.28482 0.0000000 0.0000000 0.0000000 0.0000000 0.0000000 247.4325 13.28482 10.00620 9.999819 13.27065 243.0800 47.63371 47.66990 6.126797 0.1182659
22.86250 249.7616 13.24808 0.0000000 0.0000000 0.0000000 0.0000000 0.0000000 249.7616 13.24808 9.992936 10.00392 13.23372 245.3743 47.64812 47.74430 6.132732 0.1196238
23.09583 252.0868 13.20788 0.0000000 0.0000000 0.0000000 0.0000000 0.0000000 252.0868 13.20788 9.996621 9.999186 13.19452 247.6696 48.21683 48.31460 6.140736 0.1288378
23.32916 254.4139 13.16312 0.0000000 0.0000000 0.0000000 0.0000000 0.0000000 254.4139 13.16312 10.01018 10.14777 13.15183 249.9648 48.69286 48.91400 6.162343 0.1334174
23.56250 256.7416 13.11715 0.0000000 0.0000000 0.0000000 0.0000000 0.0000000 256.7416 13.11715 9.978926 9.993988 13.10747 252.2596 48.80166 49.44500 6.192051 0.1312659
23.79584 259.0634 13.07814 0.0000000 0.0000000 0.0000000 0.0000000 0.0000000 259.0634 13.07814 9.977670 9.914848 13.06592 254.5494 50.05648 49.72530 6.197500 0.1273172
24.02917 261.3892 13.03828 0.0000000 0.0000000 0.0000000 0.0000000 0.0000000 261.3892 13.03828 9.999222 9.997674 13.02565 256.8427 50.60516 50.28730 6.240772 0.1266976
24.26250 263.7182 12.99652 0.0000000 0.0000000 0.0000000 0.0000000 0.0000000 263.7182 12.99652 10.00133 9.989242 12.98430 259.1403 50.64526 50.51990 6.246494 0.1345123
24.49583 266.0397 12.95166 0.0000000 0.0000000 0.0000000 0.0000000 0.0000000 266.0397 12.95166 10.00472 10.00056 12.94076 261.4326 51.53580 51.21810 6.273625 0.1400772
24.72916 268.3698 12.90415 0.0000000 0.0000000 0.0000000 0.0000000 0.0000000 268.3698 12.90415 10.00593 10.00568 12.89409 263.7316 51.73997 51.38980 6.284459 0.1464946
24.96250 270.6953 12.85712 0.0000000 0.0000000 0.0000000 0.0000000 0.0000000 270.6953 12.85712 10.00406 9.980962 12.84769 266.0280 52.31156 52.03430 6.308101 0.1528496
25.19583 273.0198 12.80570 0.0000000 0.0000000 0.0000000 0.0000000 0.0000000 273.0198 12.80570 9.989926 9.992325 12.79761 268.3234 52.81538 52.63700 6.303340 0.1604403
25.42917 275.3484 12.75184 0.0000000 0.0000000 0.0000000 0.0000000 0.0000000 275.3484 12.75184 10.02693 10.00231 12.74464 270.6196 53.06914 53.07610 6.337994 0.1678798
25.66250 277.6728 12.69706 0.0000000 0.0000000 0.0000000 0.0000000 0.0000000 277.6728 12.69706 10.00563 10.00058 12.69056 272.9132 53.70400 53.59630 6.359814 0.1750578
25.89584 279.9984 12.63868 0.0000000 0.0000000 0.0000000 0.0000000 0.0000000 279.9984 12.63868 10.25010 9.999515 12.63310 275.2097 54.20608 54.00750 6.363202 0.1844730
26.12917 282.3228 12.57738 0.0000000 0.0000000 0.0000000 0.0000000 0.0000000 282.3228 12.57738 9.990716 10.00422 12.57302 277.5043 54.83205 54.83010 6.399335 0.1941640
26.36250 284.6482 12.51218 0.0000000 0.0000000 0.0000000 0.0000000 0.0000000 284.6482 12.51218 9.996292 9.988036 12.50890 279.7983 55.36728 55.01470 6.424566 0.2036546
26.59583 286.9748 12.44478 0.0000000 0.0000000 0.0000000 0.0000000 0.0000000 286.9748 12.44478 10.01096 9.998671 12.44224 282.0956 55.96948 55.55120 6.425870 0.2120101
26.82916 289.3028 12.37478 0.0000000 0.0000000 0.0000000 0.0000000 0.0000000 289.3028 12.37478 10.00561 9.992376 12.37281 284.3933 56.16119 55.98730 6.438565 0.2203440
27.06250 291.6289 12.30206 0.0000000 0.0000000 0.0000000 0.0000000 0.0000000 291.6289 12.30206 10.02453 9.996613 12.30074 286.6885 56.68078 56.53670 6.452207 0.2287380
27.29584 293.9520 12.22565 0.0000000 0.0000000 0.0000000 0.0000000 0.0000000 293.9520 12.22565 9.990585 9.993790 12.22552 288.9817 57.36889 57.24990 6.493688 0.2359788
27.52917 296.2787 12.14841 0.0000000 0.0000000 0.0000000 0.0000000 0.0000000 296.2787 12.14841 9.999441 10.00390 12.14814 291.2782 57.73688 57.71260 6.511334 0.2420604
27.76250 298.6062 12.06891 0.0000000 0.0000000 0.0000000 0.0000000 0.0000000 298.6062 12.06891 10.01405 9.996456 12.06916 293.5760 58.19848 57.90010 6.499609 0.2463527
27.99583 300.9289 11.98839 0.0000000 0.0000000 0.0000000 0.0000000 0.0000000 300.9289 11.98839 9.992964 10.00211 11.98879 295.8704 58.94722 58.98360 6.540540 0.2516698
28.22916 303.2568 11.90579 0.0000000 0.0000000 0.0000000 0.0000000 0.0000000 303.2568 11.90579 10.00163 10.00384 11.90683 298.1682 59.24214 59.12640 6.553708 0.2574594
28.46250 305.5822 11.82131 0.0000000 0.0000000 0.0000000 0.0000000 0.0000000 305.5822 11.82131 9.984549 10.00064 11.82268 300.4651 59.99107 59.60870 6.591054 0.2640512
28.69584 307.9081 11.73415 0.0000000 0.0000000 0.0000000 0.0000000 0.0000000 307.9081 11.73415 10.01380 10.00231 11.73617 302.7632 60.26701 60.12370 6.592251 0.2708670
28.92916 310.2343 11.64543 0.0000000 0.0000000 0.0000000 0.0000000 0.0000000 310.2343 11.64543 9.985692 10.00320 11.64795 305.0617 60.79875 61.01850 6.647420 0.2785832
29.16250 312.5572 11.55409 0.0000000 0.0000000 0.0000000 0.0000000 0.0000000 312.5572 11.55409 10.01787 9.999606 11.55697 307.3570 61.63572 61.48400 6.625202 0.2874954
29.39584 314.8832 11.45911 0.0000000 0.0000000 0.0000000 0.0000000 0.0000000 314.8832 11.45911 10.25272 10.00379 11.46272 309.6543 61.92535 61.91130 6.639195 0.2977700
29.62917 317.2050 11.36078 0.0000000 0.0000000 0.0000000 0.0000000 0.0000000 317.2050 11.36078 9.980632 9.995804 11.36503 311.9470 62.98886 62.69210 6.676144 0.3097526
29.86250 319.5322 11.25867 0.0000000 0.0000000 0.0000000 0.0000000 0.0000000 319.5322 11.25867 10.06370 9.992754 11.26369 314.2456 63.14720 63.00540 6.677304 0.3234142
30.09583 321.8568 11.15140 0.0000000 0.0000000 0.0000000 0.0000000 0.0000000 321.8568 11.15140 10.01019 10.01153 11.15736 316.5451 63.72950 63.70940 6.696912 0.3385280
30.32916 324.1831 11.03904 0.0000000 0.0000000 0.0000000 0.0000000 0.0000000 324.1831 11.03904 9.986920 9.998370 11.04576 318.8448 64.23535 64.31800 6.697484 0.3545789
30.56250 326.5058 10.92147 0.0000000 0.0000000 0.0000000 0.0000000 0.0000000 326.5058 10.92147 9.998955 10.00048 10.92928 321.1408 64.98950 64.94610 6.736997 0.3717664
30.79584 328.8290 10.79823 0.0000000 0.0000000 0.0000000 0.0000000 0.0000000 328.8290 10.79822 9.987519 9.998751 10.80689 323.4367 65.83735 65.25670 6.765522 0.3908491
31.02917 331.1602 10.66841 0.0000000 0.0000000 0.0000000 0.0000000 0.0000000 331.1602 10.66841 10.01421 10.00277 10.67807 325.7390 65.50156 66.16000 6.763066 0.4123230
31.26250 333.4809 10.53113 0.0000000 0.0000000 0.0000000 0.0000000 0.0000000 333.4809 10.53113 10.01048 9.987464 10.54218 328.0333 66.63150 66.61780 6.803784 0.4357394
31.49583 335.8042 10.38570 0.0000000 0.0000000 0.0000000 0.0000000 0.0000000 335.8042 10.38570 10.00676 10.00984 10.39795 330.3338 67.30039 67.28210 6.800474 0.4615071
31.72916 338.1310 10.23205 0.0000000 0.0000000 0.0000000 0.0000000 0.0000000 338.1310 10.23205 9.997313 9.983700 10.24568 332.6333 67.53925 67.59270 6.813360 0.4896617
31.96250 340.4522 10.06930 0.0000000 0.0000000 0.0000000 0.0000000 0.0000000 340.4522 10.06930 10.01065 9.995374 10.08399 334.9281 68.53637 68.18580 6.838048 0.5201889
32.19584 342.7782 9.894999 0.0000000 0.0000000 0.0000000 0.0000000 0.0000000 342.7782 9.894999 10.01494 10.00268 9.911386 337.2309 68.79602 69.18650 6.863331 0.5525972
32.42916 345.1013 9.710232 0.0000000 0.0000000 0.0000000 0.0000000 0.0000000 345.1013 9.710232 10.01213 9.996728 9.728256 339.5300 69.70671 69.68490 6.872136 0.5869148
32.66250 347.4268 9.514947 0.0000000 0.0000000 0.0000000 0.0000000 0.0000000 347.4268 9.514947 9.998829 10.00835 9.534416 341.8312 70.04096 70.04800 6.886189 0.6217968
32.89583 349.7500 9.306969 0.0000000 0.0000000 0.0000000 0.0000000 0.0000000 349.7500 9.306969 9.994714 10.00854 9.327908 344.1280 70.81622 70.78210 6.951910 0.6579745
33.12916 352.0734 9.088202 0.0000000 0.0000000 0.0000000 0.0000000 0.0000000 352.0734 9.088202 9.993715 10.00540 9.110624 346.4266 71.49980 71.59060 6.935490 0.6943018
33.36250 354.3946 8.857166 0.0000000 0.0000000 0.0000000 0.0000000 0.0000000 354.3946 8.857166 9.989043 9.998438 8.880866 348.7250 72.48870 71.99660 6.937421 0.7308692
33.59583 356.7200 8.614204 0.0000000 0.0000000 0.0000000 0.0000000 0.0000000 356.7200 8.614204 9.997775 9.939887 8.639556 351.0265 72.78986 72.68970 6.967945 0.7676170
33.82916 359.0432 8.359108 0.0000000 0.0000000 0.0000000 0.0000000 0.0000000 359.0432 8.359108 9.996014 10.00299 8.386124 353.3259 73.36478 73.46310 6.987325 0.8052730
34.06250 361.3676 8.092331 0.0000000 0.0000000 0.0000000 0.0000000 0.0000000 361.3676 8.092331 10.00079 9.998961 8.120788 355.6243 73.92574 74.09980 7.011984 0.8426182
34.29584 363.6905 7.812574 0.0000000 0.0000000 0.0000000 0.0000000 0.0000000 363.6905 7.812574 10.00283 10.01019 7.842468 357.9259 74.44861 74.81189 7.053007 0.8785578
34.52917 366.0144 7.521606 0.0000000 0.0000000 0.0000000 0.0000000 0.0000000 366.0144 7.521606 9.966294 10.00410 7.552937 360.2257 75.23315 75.32280 7.035962 0.9117601
34.76250 368.3351 7.220274 0.0000000 0.0000000 0.0000000 0.0000000 0.0000000 368.3351 7.220274 10.00730 10.20304 7.252930 362.5220 76.14762 75.97140 7.057288 0.9422059
34.99584 370.6554 6.910359 0.0000000 0.0000000 0.0000000 0.0000000 0.0000000 370.6554 6.910359 10.00105 10.00221 6.943972 364.8209 77.08596 76.55340 7.070868 0.9690770
35.22917 372.9834 6.591395 0.0000000 0.0000000 0.0000000 0.0000000 0.0000000 372.9834 6.591395 9.938882 10.00119 6.625856 367.1264 77.00556 77.19570 7.082929 0.9919447
35.46250 375.3058 6.266128 0.0000000 0.0000000 0.0000000 0.0000000 0.0000000 375.3058 6.266128 9.995391 10.00179 6.301262 369.4250 77.74588 78.05880 7.098684 1.010986
35.69584 377.6243 5.935193 0.0000000 0.0000000 0.0000000 0.0000000 0.0000000 377.6243 5.935193 10.00219 9.996622 5.970918 371.7204 78.96201 78.62680 7.134992 1.026264
35.92916 379.9478 5.600337 0.0000000 0.0000000 0.0000000 0.0000000 0.0000000 379.9478 5.600337 10.00201 9.999703 5.636390 374.0200 79.46807 79.33960 7.154165 1.037583
36.16250 382.2721 5.261700 0.0000000 0.0000000 0.0000000 0.0000000 0.0000000 382.2721 5.261700 9.992576 10.00913 5.297932 376.3239 80.04249 79.77640 7.165922 1.043130
36.39583 384.5950 4.921787 0.0000000 0.0000000 0.0000000 0.0000000 0.0000000 384.5950 4.921787 9.985762 10.00292 4.958184 378.6226 80.79259 80.62580 7.175626 1.041200
36.62916 386.9147 4.584834 0.0000000 0.0000000 0.0000000 0.0000000 0.0000000 386.9147 4.584834 9.995444 9.987684 4.620809 380.9188 81.55481 81.39440 7.205442 1.030727
36.86250 389.2370 4.252564 0.0000000 0.0000000 0.0000000 0.0000000 0.0000000 389.2370 4.252564 9.991736 9.999194 4.287888 383.2184 82.23781 81.67870 7.220450 1.011771
37.09583 391.5562 3.927620 0.0000000 0.0000000 0.0000000 0.0000000 0.0000000 391.5562 3.927620 10.00401 10.00623 3.962058 385.5128 83.24506 82.85419 7.235884 0.9851031
37.32916 393.8829 3.612370 0.0000000 0.0000000 0.0000000 0.0000000 0.0000000 393.8829 3.612370 10.00040 9.985228 3.645678 387.8150 83.35882 83.52410 7.243055 0.9506089
37.56250 396.2034 3.309520 0.0000000 0.0000000 0.0000000 0.0000000 0.0000000 396.2034 3.309520 9.997609 10.00380 3.341260 390.1116 84.26594 84.10040 7.269772 0.9072931
37.79584 398.5263 3.022396 0.0000000 0.0000000 0.0000000 0.0000000 0.0000000 398.5263 3.022396 10.05318 9.994649 3.051887 392.4084 84.82294 84.96710 7.292462 0.8546736
38.02917 400.8485 2.753717 0.0000000 0.0000000 0.0000000 0.0000000 0.0000000 400.8485 2.753717 10.34124 9.998114 2.780865 394.7067 85.55952 85.72000 7.311606 0.7924370
38.26250 403.1672 2.506804 0.0000000 0.0000000 0.0000000 0.0000000 0.0000000 403.1672 2.506804 10.36392 10.00292 2.531033 397.0022 86.68461 86.29719 7.327688 0.7213478
38.49584 405.4925 2.284570 0.0000000 0.0000000 0.0000000 0.0000000 0.0000000 405.4925 2.284570 10.00792 10.00303 2.305658 399.3046 86.86681 87.22650 7.344724 0.6430030
38.72917 407.8137 2.088864 0.0000000 0.0000000 0.0000000 0.0000000 0.0000000 407.8137 2.088864 10.01161 9.976853 2.106476 401.6066 87.86976 87.70830 7.344663 0.5603557
38.96250 410.1382 1.920909 0.0000000 0.0000000 0.0000000 0.0000000 0.0000000 410.1382 1.920909 9.999574 10.22678 1.934720 403.9188 88.57718 88.42991 7.378790 0.4772235
39.19584 412.4646 1.779912 0.0000000 0.0000000 0.0000000 0.0000000 0.0000000 412.4646 1.779912 10.02593 9.999695 1.789934 406.2420 89.12684 89.23880 7.391324 0.3971984
39.42916 414.7864 1.664602 0.0000000 0.0000000 0.0000000 0.0000000 0.0000000 414.7864 1.664602 10.02511 10.00618 1.670699 408.5720 89.83566 89.92620 7.412939 0.3233347
39.66250 417.1067 1.572240 0.0000000 0.0000000 0.0000000 0.0000000 0.0000000 417.1067 1.572240 9.989838 10.00441 1.574391 410.9062 90.41590 90.84230 7.421064 0.2574748
39.89583 419.4256 1.499808 0.0000000 0.0000000 0.0000000 0.0000000 0.0000000 419.4256 1.499808 10.00071 9.983466 1.497957 413.2383 91.43598 91.46869 7.436650 0.2004370
40.12916 421.7428 1.444284 0.0000000 0.0000000 0.0000000 0.0000000 0.0000000 421.7428 1.444284 9.952516 10.00126 1.438224 415.5615 92.43048 92.42219 7.469824 0.1521479
40.36250 424.0630 1.402995 0.0000000 0.0000000 0.0000000 0.0000000 0.0000000 424.0630 1.402995 9.961922 9.979150 1.392364 417.8761 93.03859 93.12850 7.497640 0.1132682
40.59583 426.3832 1.373306 0.0000000 0.0000000 0.0000000 0.0000000 0.0000000 426.3832 1.373306 10.27476 10.01082 1.357692 420.1838 93.88762 93.93180 7.518094 0.08630306
40.82916 428.7020 1.350180 0.0000000 0.0000000 0.0000000 0.0000000 0.0000000 428.7020 1.350180 9.984860 10.00312 1.332345 422.4848 94.79415 94.67030 7.533666 0.06871796
41.06250 431.0172 1.329335 0.0000000 0.0000000 0.0000000 0.0000000 0.0000000 431.0172 1.329335 10.00127 10.03731 1.314466 424.7639 95.50145 95.48920 7.538969 0.05556192
41.29584 433.3380 1.313433 0.0000000 0.0000000 0.0000000 0.0000000 0.0000000 433.3380 1.313433 10.00641 9.994400 1.302580 426.9298 95.79257 96.14840 7.568350 0.04205420
41.52917 435.6312 1.302493 0.0000000 0.0000000 0.0000000 0.0000000 0.0000000 435.6312 1.302493 10.00288 10.00538 1.295378 429.0434 97.73402 97.77259 7.599210 0.02853899
41.76250 437.9426 1.295714 0.0000000 0.0000000 0.0000000 0.0000000 0.0000000 437.9426 1.295714 9.992288 9.968631 1.291516 431.3387 98.56506 98.53500 7.603750 0.01800324
41.99584 440.2744 1.291742 0.0000000 0.0000000 0.0000000 0.0000000 0.0000000 440.2744 1.291742 9.977272 9.997208 1.289182 433.6506 99.29218 99.20241 7.632230 0.01116681
42.22917 442.5984 1.289142 0.0000000 0.0000000 0.0000000 0.0000000 0.0000000 442.5984 1.289142 10.00088 9.992401 1.287390 435.9504 99.89215 99.96500 7.645086 .007489446
42.46250 444.9170 1.287226 0.0000000 0.0000000 0.0000000 0.0000000 0.0000000 444.9170 1.287226 9.988189 9.994953 1.285866 438.2469 100.8500 100.8709 7.663230 .005695316
42.69584 447.2347 1.285610 0.0000000 0.0000000 0.0000000 0.0000000 0.0000000 447.2347 1.285610 9.993071 10.00554 1.284484 440.5412 101.5065 101.5005 7.661184 .004780840
42.92916 449.5494 1.284175 0.0000000 0.0000000 0.0000000 0.0000000 0.0000000 449.5494 1.284175 10.00209 9.990759 1.283080 442.8336 102.8487 102.4253 7.690970 .004219129
43.16250 451.8684 1.282900 0.0000000 0.0000000 0.0000000 0.0000000 0.0000000 451.8684 1.282901 10.00366 10.00050 1.281900 445.1272 103.3650 103.5612 7.693045 .003820541
43.39583 454.1870 1.281752 0.0000000 0.0000000 0.0000000 0.0000000 0.0000000 454.1870 1.281752 10.00193 9.994824 1.280870 447.4218 104.1364 104.1770 7.734846 .003510473
43.62916 456.5038 1.280630 0.0000000 0.0000000 0.0000000 0.0000000 0.0000000 456.5038 1.280630 9.992401 10.00686 1.279798 449.7139 105.0947 105.0706 7.741430 .003127560
43.86250 458.8191 1.279605 0.0000000 0.0000000 0.0000000 0.0000000 0.0000000 458.8191 1.279605 10.00191 9.993585 1.278942 452.0082 106.0411 106.0366 7.783552 .002675938
44.09583 461.1360 1.278933 0.0000000 0.0000000 0.0000000 0.0000000 0.0000000 461.1360 1.278933 9.998256 9.996906 1.278405 454.3029 107.0876 107.0290 7.788718 .002252560
44.32916 463.4532 1.278261 0.0000000 0.0000000 0.0000000 0.0000000 0.0000000 463.4532 1.278261 10.00048 10.00385 1.277769 456.5980 107.8915 107.9249 7.808180 .002085703
44.56250 465.7685 1.277616 0.0000000 0.0000000 0.0000000 0.0000000 0.0000000 465.7685 1.277616 10.00966 10.00806 1.277130 458.8928 108.9296 108.6075 7.827902 .002214474
44.79584 468.0859 1.276870 0.0000000 0.0000000 0.0000000 0.0000000 0.0000000 468.0859 1.276870 10.01140 10.00382 1.276294 461.1886 109.6948 109.6442 7.858916 .002267172
45.02917 470.4018 1.276036 0.0000000 0.0000000 0.0000000 0.0000000 0.0000000 470.4018 1.276036 10.00116 10.01110 1.275439 463.4830 110.5116 110.7645 7.858298 .002156925
45.26250 472.7165 1.275435 0.0000000 0.0000000 0.0000000 0.0000000 0.0000000 472.7165 1.275435 10.00028 9.999038 1.274924 465.7762 111.6415 111.4059 7.882276 .001864512
45.49584 475.0324 1.274884 0.0000000 0.0000000 0.0000000 0.0000000 0.0000000 475.0324 1.274884 10.00554 9.989265 1.274538 468.0709 112.4490 112.6729 7.914038 .001553473
45.72917 477.3462 1.274366 0.0000000 0.0000000 0.0000000 0.0000000 0.0000000 477.3462 1.274366 9.997110 9.999139 1.273668 470.3637 113.5430 113.5931 7.907782 .001374760
45.96250 479.6630 1.274024 0.0000000 0.0000000 0.0000000 0.0000000 0.0000000 479.6630 1.274024 9.997131 10.01927 1.273697 472.6607 114.5214 114.4197 7.924582 .001222065
46.19584 481.9780 1.273626 0.0000000 0.0000000 0.0000000 0.0000000 0.0000000 481.9780 1.273626 10.01050 10.00168 1.273343 474.9538 115.4674 115.1898 7.958274 .001115701
46.42916 484.2928 1.273304 0.0000000 0.0000000 0.0000000 0.0000000 0.0000000 484.2928 1.273304 9.996474 9.995090 1.273048 477.2491 116.3795 116.3899 7.970045 .001032706
46.66250 486.6074 1.272976 0.0000000 0.0000000 0.0000000 0.0000000 0.0000000 486.6074 1.272976 10.02198 9.992715 1.272715 479.5450 117.4347 117.2273 7.999395 9.10863E-4
46.89583 488.9224 1.272686 0.0000000 0.0000000 0.0000000 0.0000000 0.0000000 488.9224 1.272686 9.998832 10.02957 1.272502 481.8389 118.1958 118.1799 7.990492 7.70147E-4
47.12916 491.2352 1.272493 0.0000000 0.0000000 0.0000000 0.0000000 0.0000000 491.2352 1.272493 10.00533 10.00209 1.272334 484.1316 119.3016 119.2816 8.041480 6.42109E-4
47.36250 493.5491 1.272304 0.0000000 0.0000000 0.0000000 0.0000000 0.0000000 493.5491 1.272304 10.00757 10.01385 1.272159 486.4246 120.3407 120.1917 8.074744 6.26296E-4
47.59583 495.8621 1.272093 0.0000000 0.0000000 0.0000000 0.0000000 0.0000000 495.8621 1.272093 9.995531 9.998574 1.271870 488.7174 121.5029 121.3169 8.077628 6.37498E-4
47.82916 498.1793 1.271877 0.0000000 0.0000000 0.0000000 0.0000000 0.0000000 498.1793 1.271877 10.01319 10.00175 1.271972 491.0163 122.1102 122.3104 8.080268 5.62763E-4
48.06250 500.4912 1.271692 0.0000000 0.0000000 0.0000000 0.0000000 0.0000000 500.4912 1.271692 9.988509 9.990289 1.271553 493.3110 123.2381 123.2231 8.106344 -4.9080E-5
48.29584 502.8049 1.271672 0.0000000 0.0000000 0.0000000 0.0000000 0.0000000 502.8049 1.271672 10.01665 10.00530 1.272268 495.6031 124.3356 124.3435 8.127776 -5.6520E-4
48.52917 505.1186 1.272275 0.0000000 0.0000000 0.0000000 0.0000000 0.0000000 505.1186 1.272275 10.04031 9.999165 1.272503 497.8963 125.2082 125.4191 8.176275 -6.0160E-4
48.76250 507.4312 1.272352 0.0000000 0.0000000 0.0000000 0.0000000 0.0000000 507.4312 1.272352 10.00459 9.997499 1.272318 500.1924 126.2352 126.3399 8.173560 -1.5386E-4
48.99584 509.7424 1.272187 0.0000000 0.0000000 0.0000000 0.0000000 0.0000000 509.7424 1.272187 9.980179 9.988430 1.272040 502.4860 127.4195 127.4516 8.192740 2.92777E-4
49.22917 512.0530 1.272099 0.0000000 0.0000000 0.0000000 0.0000000 0.0000000 512.0530 1.272099 10.26691 10.00042 1.272011 504.7787 128.8082 128.5655 8.211897 3.44275E-4
49.46250 514.3662 1.271991 0.0000000 0.0000000 0.0000000 0.0000000 0.0000000 514.3662 1.271991 9.983655 10.09917 1.271934 507.0720 129.6490 129.3407 8.233191 2.32574E-4
49.69584 516.6772 1.271907 0.0000000 0.0000000 0.0000000 0.0000000 0.0000000 516.6772 1.271907 10.00143 9.991352 1.271771 509.3671 130.7424 130.6433 8.221495 1.65521E-4
49.92916 518.9900 1.271916 0.0000000 0.0000000 0.0000000 0.0000000 0.0000000 518.9900 1.271916 9.909390 10.01177 1.271891 511.6637 131.8942 131.5861 8.280066 1.92597E-4
50.16250 521.3020 1.271834 0.0000000 0.0000000 0.0000000 0.0000000 0.0000000 521.3020 1.271834 9.999932 9.994672 1.271724 513.9575 132.8216 132.8383 8.298536 3.19707E-4
50.39583 523.6134 1.271686 0.0000000 0.0000000 0.0000000 0.0000000 0.0000000 523.6134 1.271686 10.00009 9.997941 1.271545 516.2515 133.8586 133.8759 8.309088 4.37630E-4
50.62916 525.9254 1.271524 0.0000000 0.0000000 0.0000000 0.0000000 0.0000000 525.9254 1.271524 9.984664 10.00530 1.271328 518.5482 134.8923 134.7753 8.331328 3.74000E-4
50.86250 528.2343 1.271410 0.0000000 0.0000000 0.0000000 0.0000000 0.0000000 528.2343 1.271410 9.995222 9.999722 1.271367 520.8394 136.0204 136.1903 8.356299 2.63945E-4
51.09583 530.5445 1.271385 0.0000000 0.0000000 0.0000000 0.0000000 0.0000000 530.5445 1.271385 9.998149 10.00141 1.271356 523.1358 137.2560 137.1159 8.332701 2.11577E-4
51.32917 532.8538 1.271296 0.0000000 0.0000000 0.0000000 0.0000000 0.0000000 532.8538 1.271296 10.00394 10.00372 1.271156 525.4307 138.5055 138.1615 8.380728 2.50565E-4
51.56250 535.1635 1.271200 0.0000000 0.0000000 0.0000000 0.0000000 0.0000000 535.1635 1.271200 10.01107 9.996791 1.271127 527.7234 139.5014 139.5335 8.383658 2.96807E-4
51.79583 537.4739 1.271129 0.0000000 0.0000000 0.0000000 0.0000000 0.0000000 537.4739 1.271129 10.00053 9.993491 1.271079 530.0171 140.6100 140.6569 8.427176 3.10249E-4
52.02917 539.7828 1.270997 0.0000000 0.0000000 0.0000000 0.0000000 0.0000000 539.7828 1.270997 9.999751 10.00366 1.270871 532.3118 141.7291 141.8662 8.444113 3.21931E-4
52.26250 542.0918 1.270872 0.0000000 0.0000000 0.0000000 0.0000000 0.0000000 542.0918 1.270872 10.01957 10.00032 1.270790 534.6066 143.0629 142.7732 8.461234 2.57755E-4
52.49584 544.4012 1.270805 0.0000000 0.0000000 0.0000000 0.0000000 0.0000000 544.4012 1.270805 9.996641 9.997528 1.270717 536.8993 144.0386 144.1132 8.474059 1.78349E-4
52.72918 546.7093 1.270855 0.0000000 0.0000000 0.0000000 0.0000000 0.0000000 546.7093 1.270855 9.977332 9.996319 1.270913 539.1953 145.3075 145.2545 8.502241 1.76099E-4
52.96250 549.0164 1.270706 0.0000000 0.0000000 0.0000000 0.0000000 0.0000000 549.0164 1.270706 9.997909 10.20814 1.270551 541.4866 146.7357 146.3239 8.529631 2.49326E-4
53.19584 551.3258 1.270618 0.0000000 0.0000000 0.0000000 0.0000000 0.0000000 551.3258 1.270618 9.994781 10.00124 1.270531 543.7850 147.7320 147.5991 8.522086 3.16223E-4
53.42916 553.6342 1.270544 0.0000000 0.0000000 0.0000000 0.0000000 0.0000000 553.6342 1.270544 10.05344 10.00478 1.270489 546.0782 148.9920 148.6574 8.569632 2.80036E-4
53.66250 555.9430 1.270411 0.0000000 0.0000000 0.0000000 0.0000000 0.0000000 555.9430 1.270411 10.00625 10.00403 1.270249 548.3714 150.0938 149.9103 8.585363 2.51082E-4
53.89582 558.2512 1.270357 0.0000000 0.0000000 0.0000000 0.0000000 0.0000000 558.2512 1.270357 9.993351 10.02206 1.270295 550.6670 151.1818 151.0851 8.549384 2.37113E-4
54.12916 560.5586 1.270292 0.0000000 0.0000000 0.0000000 0.0000000 0.0000000 560.5586 1.270292 10.07242 9.998795 1.270177 552.9598 152.4028 152.3073 8.620275 2.13418E-4
54.36250 562.8650 1.270227 0.0000000 0.0000000 0.0000000 0.0000000 0.0000000 562.8650 1.270227 10.00529 10.00403 1.270128 555.2558 153.7279 153.6098 8.637915 2.70874E-4
54.59582 565.1702 1.270121 0.0000000 0.0000000 0.0000000 0.0000000 0.0000000 565.1702 1.270121 10.00524 10.00762 1.269990 557.5464 155.1405 154.9335 8.650092 3.31383E-4
54.82918 567.4780 1.269998 0.0000000 0.0000000 0.0000000 0.0000000 0.0000000 567.4780 1.269998 9.997559 9.999412 1.269827 559.8408 156.3047 156.0222 8.679992 3.56491E-4
55.06250 569.7842 1.269880 0.0000000 0.0000000 0.0000000 0.0000000 0.0000000 569.7842 1.269880 10.00214 9.997184 1.269753 562.1351 157.4292 157.3993 8.701981 3.29174E-4
55.29582 572.0904 1.269784 0.0000000 0.0000000 0.0000000 0.0000000 0.0000000 572.0904 1.269784 9.995644 9.998113 1.269676 564.4292 158.6877 158.6279 8.723456 2.98239E-4
55.52918 574.3962 1.269704 0.0000000 0.0000000 0.0000000 0.0000000 0.0000000 574.3962 1.269704 9.999363 9.993793 1.269580 566.7237 159.8937 159.8712 8.738899 3.41338E-4
55.76250 576.7016 1.269606 0.0000000 0.0000000 0.0000000 0.0000000 0.0000000 576.7016 1.269606 9.996574 10.04315 1.269472 569.0180 161.1829 161.0420 8.743988 3.94478E-4
55.99584 579.0050 1.269437 0.0000000 0.0000000 0.0000000 0.0000000 0.0000000 579.0050 1.269437 10.01111 9.995301 1.269352 571.3090 162.6186 162.3874 8.774306 3.92464E-4
56.22918 581.3100 1.269288 0.0000000 0.0000000 0.0000000 0.0000000 0.0000000 581.3100 1.269288 9.993108 10.16582 1.269184 573.6032 163.8774 163.8619 8.799438 3.05837E-4
56.46250 583.6143 1.269239 0.0000000 0.0000000 0.0000000 0.0000000 0.0000000 583.6143 1.269239 10.00093 9.995506 1.269168 575.8964 165.0731 165.0917 8.829482 2.37694E-4
56.69584 585.9199 1.269194 0.0000000 0.0000000 0.0000000 0.0000000 0.0000000 585.9199 1.269194 9.984845 9.991820 1.269128 578.1891 166.3669 166.3308 8.821121 2.11598E-4
56.92916 588.2222 1.269091 0.0000000 0.0000000 0.0000000 0.0000000 0.0000000 588.2222 1.269091 10.01338 10.00202 1.268985 580.4816 167.9132 167.4959 8.860549 2.45768E-4
57.16250 590.5270 1.269014 0.0000000 0.0000000 0.0000000 0.0000000 0.0000000 590.5270 1.269014 9.925332 10.00926 1.268949 582.7764 169.2235 168.8683 8.873114 2.29130E-4
57.39582 592.8310 1.268932 0.0000000 0.0000000 0.0000000 0.0000000 0.0000000 592.8310 1.268932 9.992491 9.995584 1.268913 585.0688 170.4571 170.5623 8.908546 1.96363E-4
57.62916 595.1363 1.268908 0.0000000 0.0000000 0.0000000 0.0000000 0.0000000 595.1363 1.268908 10.00174 10.00107 1.268802 587.3622 171.4343 171.6300 8.905281 1.89182E-4
57.86250 597.4368 1.268845 0.0000000 0.0000000 0.0000000 0.0000000 0.0000000 597.4368 1.268845 9.982616 9.989074 1.268772 589.6522 173.2142 172.8165 8.945059 1.97851E-4
58.09582 599.7404 1.268759 0.0000000 0.0000000 0.0000000 0.0000000 0.0000000 599.7404 1.268759 10.22595 9.988397 1.268660 591.9450 174.5398 174.3119 8.943984 2.05501E-4
58.32918 602.0442 1.268709 0.0000000 0.0000000 0.0000000 0.0000000 0.0000000 602.0442 1.268709 10.00043 9.996522 1.268640 594.2383 175.7804 175.6599 8.965781 2.07060E-4
58.56250 604.3462 1.268635 0.0000000 0.0000000 0.0000000 0.0000000 0.0000000 604.3462 1.268635 9.997424 10.00827 1.268573 596.5296 177.1613 177.1529 8.967804 1.85714E-4
58.79582 606.6472 1.268554 0.0000000 0.0000000 0.0000000 0.0000000 0.0000000 606.6472 1.268554 9.994246 9.992682 1.268448 598.8215 178.5890 178.6753 9.020720 1.68880E-4
59.02918 608.9480 1.268541 0.0000000 0.0000000 0.0000000 0.0000000 0.0000000 608.9480 1.268541 9.996821 9.998455 1.268486 601.1137 180.0575 179.8567 9.033301 1.44433E-4
59.26250 611.2505 1.268488 0.0000000 0.0000000 0.0000000 0.0000000 0.0000000 611.2505 1.268488 10.00924 10.00413 1.268370 603.4052 181.3763 181.2753 9.020164 1.44703E-4
59.49584 613.5506 1.268423 0.0000000 0.0000000 0.0000000 0.0000000 0.0000000 613.5506 1.268423 10.01658 10.00959 1.268355 605.6960 182.8683 182.6981 9.059813 1.43669E-4
59.72918 615.8520 1.268391 0.0000000 0.0000000 0.0000000 0.0000000 0.0000000 615.8520 1.268391 10.02369 10.00226 1.268363 607.9859 184.3173 183.9262 9.056518 1.41234E-4
59.96250 618.1522 1.268355 0.0000000 0.0000000 0.0000000 0.0000000 0.0000000 618.1522 1.268355 10.00293 10.00036 1.268302 610.2766 185.7530 185.4975 9.087379 1.40533E-4
60.19584 620.4532 1.268293 0.0000000 0.0000000 0.0000000 0.0000000 0.0000000 620.4532 1.268293 10.01806 9.998290 1.268258 612.5681 187.0904 186.9879 9.117019 1.72250E-4
60.42916 622.7530 1.268240 0.0000000 0.0000000 0.0000000 0.0000000 0.0000000 622.7530 1.268240 9.995598 10.02543 1.268141 614.8596 188.6108 188.5332 9.147384 2.17271E-4
60.66250 625.0532 1.268177 0.0000000 0.0000000 0.0000000 0.0000000 0.0000000 625.0532 1.268177 10.00924 10.00273 1.268080 617.1492 189.9888 189.9320 9.172424 2.09633E-4
60.89582 627.3518 1.268076 0.0000000 0.0000000 0.0000000 0.0000000 0.0000000 627.3518 1.268076 9.996625 10.00516 1.268040 619.4390 191.5325 191.4195 9.198249 2.22317E-4
61.12916 629.6506 1.268043 0.0000000 0.0000000 0.0000000 0.0000000 0.0000000 629.6506 1.268043 10.01190 9.992675 1.267971 621.7286 193.1211 192.8952 9.210226 2.47706E-4
61.36250 631.9508 1.267925 0.0000000 0.0000000 0.0000000 0.0000000 0.0000000 631.9508 1.267925 10.01385 10.00181 1.267768 624.0188 194.5630 194.1246 9.233093 2.89265E-4
61.59582 634.2507 1.267840 0.0000000 0.0000000 0.0000000 0.0000000 0.0000000 634.2507 1.267840 10.00552 10.03352 1.267754 626.3105 195.8023 195.8501 9.242881 2.97838E-4
61.82918 636.5472 1.267733 0.0000000 0.0000000 0.0000000 0.0000000 0.0000000 636.5472 1.267734 9.991984 9.998032 1.267631 628.5964 197.4931 197.3574 9.270812 2.35706E-4
62.06250 638.8445 1.267673 0.0000000 0.0000000 0.0000000 0.0000000 0.0000000 638.8445 1.267673 10.22200 10.00233 1.267560 630.8874 199.1475 198.9152 9.281387 2.00755E-4
62.29582 641.1444 1.267636 0.0000000 0.0000000 0.0000000 0.0000000 0.0000000 641.1444 1.267636 9.984231 10.00938 1.267611 633.1782 200.5374 200.2826 9.307480 1.84421E-4
62.52918 643.4420 1.267557 0.0000000 0.0000000 0.0000000 0.0000000 0.0000000 643.4420 1.267557 9.995861 9.993994 1.267492 635.4670 202.0078 201.7795 9.339889 1.96032E-4
62.76250 645.7386 1.267502 0.0000000 0.0000000 0.0000000 0.0000000 0.0000000 645.7386 1.267502 10.03601 10.00756 1.267488 637.7596 203.6276 203.3824 9.350968 2.02651E-4
62.99584 648.0380 1.267424 0.0000000 0.0000000 0.0000000 0.0000000 0.0000000 648.0380 1.267424 10.03068 10.01431 1.267301 640.0484 204.9555 204.8379 9.360084 1.73095E-4
63.22918 650.3331 1.267381 0.0000000 0.0000000 0.0000000 0.0000000 0.0000000 650.3331 1.267381 9.996709 9.998829 1.267350 642.3364 206.6466 206.4717 9.400375 1.73002E-4
63.46250 652.6298 1.267340 0.0000000 0.0000000 0.0000000 0.0000000 0.0000000 652.6298 1.267340 9.995868 9.995380 1.267268 644.6282 208.2476 208.0094 9.420898 1.65097E-4
63.69584 654.9268 1.267270 0.0000000 0.0000000 0.0000000 0.0000000 0.0000000 654.9268 1.267270 10.01056 10.00141 1.267196 646.9182 209.6502 209.6386 9.430976 1.89920E-4
63.92916 657.2210 1.267209 0.0000000 0.0000000 0.0000000 0.0000000 0.0000000 657.2210 1.267209 9.996094 9.995751 1.267112 649.2074 211.3825 211.2139 9.442780 2.00190E-4
64.16250 659.5176 1.267138 0.0000000 0.0000000 0.0000000 0.0000000 0.0000000 659.5176 1.267138 10.00685 9.995956 1.267057 651.4979 212.9690 212.8298 9.463600 2.03282E-4
64.39584 661.8138 1.267088 0.0000000 0.0000000 0.0000000 0.0000000 0.0000000 661.8138 1.267088 9.997028 10.00084 1.267061 653.7890 214.4639 214.3608 9.491318 1.93329E-4
64.62916 664.1079 1.267023 0.0000000 0.0000000 0.0000000 0.0000000 0.0000000 664.1079 1.267023 10.01570 10.00425 1.266971 656.0774 216.2092 215.9809 9.516410 1.99023E-4
64.86250 666.4032 1.266970 0.0000000 0.0000000 0.0000000 0.0000000 0.0000000 666.4032 1.266970 10.01850 10.00117 1.266892 658.3640 217.7962 217.6294 9.536422 2.04073E-4
65.09582 668.6980 1.266873 0.0000000 0.0000000 0.0000000 0.0000000 0.0000000 668.6980 1.266873 9.993072 9.997100 1.266840 660.6522 219.3772 219.1141 9.510512 2.07982E-4
65.32918 670.9922 1.266828 0.0000000 0.0000000 0.0000000 0.0000000 0.0000000 670.9922 1.266828 9.990512 10.00599 1.266716 662.9391 221.1282 220.9674 9.567191 1.96860E-4
65.56250 673.2868 1.266752 0.0000000 0.0000000 0.0000000 0.0000000 0.0000000 673.2868 1.266752 9.999084 9.999762 1.266672 665.2280 222.6320 222.5363 9.582320 1.79282E-4
65.79582 675.5808 1.266717 0.0000000 0.0000000 0.0000000 0.0000000 0.0000000 675.5808 1.266717 10.00466 10.00795 1.266652 667.5134 224.3646 224.1965 9.615051 1.78876E-4
66.02918 677.8752 1.266655 0.0000000 0.0000000 0.0000000 0.0000000 0.0000000 677.8752 1.266655 10.00118 9.977336 1.266562 669.8018 225.7739 225.7253 9.634520 1.65259E-4
66.26250 680.1674 1.266584 0.0000000 0.0000000 0.0000000 0.0000000 0.0000000 680.1674 1.266584 10.02163 10.00018 1.266548 672.0845 227.6000 227.4334 9.660141 1.57559E-4
66.49584 682.4599 1.266556 0.0000000 0.0000000 0.0000000 0.0000000 0.0000000 682.4599 1.266556 9.996231 10.00044 1.266538 674.3689 229.3343 229.2158 9.673004 1.15306E-4
66.72916 684.7534 1.266508 0.0000000 0.0000000 0.0000000 0.0000000 0.0000000 684.7534 1.266508 9.990219 9.997726 1.266491 676.6582 230.8210 230.9376 9.694199 6.99873E-5
66.96250 687.0464 1.266516 0.0000000 0.0000000 0.0000000 0.0000000 0.0000000 687.0464 1.266516 10.00372 10.00480 1.266529 678.9450 232.5750 232.5789 9.662612 4.19708E-5
67.19582 689.3369 1.266493 0.0000000 0.0000000 0.0000000 0.0000000 0.0000000 689.3369 1.266493 9.999150 9.988860 1.266468 681.2332 234.5736 234.1380 9.734199 1.23298E-5
67.42918 691.6290 1.266484 0.0000000 0.0000000 0.0000000 0.0000000 0.0000000 691.6290 1.266484 10.00329 9.999749 1.266488 683.5181 236.1368 236.1206 9.711462 -1.8451E-5
67.66250 693.9222 1.266508 0.0000000 0.0000000 0.0000000 0.0000000 0.0000000 693.9222 1.266508 10.02870 10.00554 1.266529 685.8056 237.7278 237.5754 9.770194 -3.9118E-5
67.89584 696.2006 1.266529 0.0000000 0.0000000 0.0000000 0.0000000 0.0000000 696.2006 1.266529 9.991125 9.997774 1.266513 688.0822 239.4292 239.2183 9.766601 -6.0557E-5
68.12916 698.4519 1.266532 0.0000000 0.0000000 0.0000000 0.0000000 0.0000000 698.4519 1.266532 10.00368 9.996066 1.266555 690.3306 241.1191 240.9226 9.807258 -4.5503E-5
68.24584 699.5753 1.266564 0.0000000 0.0000000 0.0000000 0.0000000 0.0000000 699.5753 1.266564 9.994637 10.00656 1.266621 691.4524 241.9924 241.7775 9.807776 -4.0288E-5